t_ms,msp,motor,servo0,servo1,gyro_p,gyro_q,gyro_r,acc_x,acc_y,acc_z,qw,qx,qy,qz,pos_n,pos_e,pos_d,vel_n,vel_e,vel_d,tgtpos_n,tgtpos_e,tgtpos_d,rcData0,rcData1,rcData2,rcData3
635539.2280,3.0000,1448.0000,1463.0000,1503.0000,14.0000,13.0000,-12.0000,-72.0000,-249.0000,998.0000,0.3589,-0.0405,0.0984,0.9273,165.5100,-18.6000,-74.4200,-14.4200,-4.2200,2.6500,0.0000,0.0000,-0.0000,1500.0000,1500.0000,1500.0000,1478.0000
635555.9710,3.0000,1449.0000,1464.0000,1504.0000,14.0000,12.0000,-9.0000,-71.0000,-278.0000,910.0000,0.3604,-0.0425,0.1004,0.9264,165.2400,-18.6700,-74.3700,-14.3800,-4.2800,2.7400,0.0000,0.0000,-0.0000,1500.0000,1500.0000,1500.0000,1478.0000
635572.6450,3.0000,1446.0000,1464.0000,1504.0000,14.0000,12.0000,-7.0000,-27.0000,-289.0000,891.0000,0.3615,-0.0444,0.1028,0.9256,164.9900,-18.7500,-74.3200,-14.3300,-4.3300,2.8500,0.0000,0.0000,-0.0000,1500.0000,1498.0000,1500.0000,1476.0000
635589.2120,3.0000,1448.0000,1463.0000,1505.0000,14.0000,12.0000,-6.0000,-115.0000,-199.0000,877.0000,0.3624,-0.0463,0.1048,0.9250,164.7400,-18.8200,-74.2700,-14.2900,-4.3700,2.9500,0.0000,0.0000,-0.0000,1500.0000,1498.0000,1500.0000,1478.0000
635606.0530,3.0000,1449.0000,1463.0000,1505.0000,14.0000,12.0000,-4.0000,-87.0000,-164.0000,902.0000,0.3630,-0.0484,0.1069,0.9244,164.7400,-18.8200,-74.2700,-14.2900,-4.3700,2.9500,0.0000,0.0000,-0.0000,1500.0000,1498.0000,1500.0000,1478.0000
635622.7970,3.0000,1449.0000,1464.0000,1504.0000,13.0000,10.0000,-3.0000,-36.0000,-245.0000,912.0000,0.3635,-0.0504,0.1089,0.9238,164.4900,-18.9000,-74.2200,-14.2400,-4.4100,3.0500,0.0000,0.0000,-0.0000,1500.0000,1498.0000,1500.0000,1478.0000
635639.5450,3.0000,1446.0000,1466.0000,1508.0000,13.0000,11.0000,-2.0000,-47.0000,-192.0000,855.0000,0.3638,-0.0520,0.1108,0.9234,164.2500,-18.9700,-74.1700,-14.1900,-4.4500,3.1500,0.0000,0.0000,-0.0000,1497.0000,1500.0000,1500.0000,1476.0000
635656.5260,3.0000,1449.0000,1465.0000,1507.0000,16.0000,10.0000,-1.0000,-52.0000,-273.0000,917.0000,0.3641,-0.0537,0.1129,0.9229,164.0200,-19.0400,-74.1100,-14.1400,-4.4800,3.2600,0.0000,0.0000,-0.0000,1500.0000,1498.0000,1500.0000,1478.0000
635673.2460,3.0000,1449.0000,1466.0000,1508.0000,17.0000,11.0000,-1.0000,-24.0000,-262.0000,991.0000,0.3644,-0.0554,0.1153,0.9224,163.7900,-19.1100,-74.0600,-14.0800,-4.5200,3.3600,0.0000,0.0000,-0.0000,1500.0000,1498.0000,1500.0000,1478.0000
635689.9470,3.0000,1449.0000,1465.0000,1507.0000,15.0000,11.0000,0.0000,-31.0000,-230.0000,998.0000,0.3646,-0.0569,0.1174,0.9220,163.5700,-19.1800,-74.0000,-14.0200,-4.5600,3.4700,0.0000,0.0000,-0.0000,1500.0000,1500.0000,1500.0000,1478.0000
635706.5570,3.0000,1449.0000,1464.0000,1506.0000,14.0000,9.0000,1.0000,-19.0000,-204.0000,963.0000,0.3646,-0.0584,0.1194,0.9216,163.5700,-19.1800,-74.0000,-14.0200,-4.5600,3.4700,0.0000,0.0000,-0.0000,1500.0000,1498.0000,1500.0000,1478.0000
635723.1960,3.0000,1449.0000,1463.0000,1505.0000,12.0000,10.0000,2.0000,-72.0000,-219.0000,964.0000,0.3645,-0.0600,0.1213,0.9213,163.3500,-19.2500,-73.9400,-13.9600,-4.5900,3.5700,0.0000,0.0000,-0.0000,1500.0000,1498.0000,1500.0000,1478.0000
635739.6460,3.0000,1446.0000,1463.0000,1505.0000,11.0000,10.0000,2.0000,-60.0000,-174.0000,904.0000,0.3644,-0.0615,0.1229,0.9211,163.1500,-19.3200,-73.8700,-13.9000,-4.6200,3.6700,0.0000,0.0000,-0.0000,1500.0000,1498.0000,1500.0000,1476.0000
635756.4240,3.0000,1448.0000,1462.0000,1506.0000,11.0000,11.0000,2.0000,20.0000,-71.0000,765.0000,0.3641,-0.0631,0.1246,0.9208,162.9400,-19.3900,-73.8100,-13.8400,-4.6400,3.7700,0.0000,0.0000,-0.0000,1500.0000,1500.0000,1500.0000,1478.0000
635773.3830,3.0000,1449.0000,1463.0000,1507.0000,11.0000,10.0000,1.0000,-69.0000,0.0000,747.0000,0.3639,-0.0646,0.1264,0.9205,162.7400,-19.4600,-73.7400,-13.7900,-4.6500,3.8900,0.0000,0.0000,-0.0000,1500.0000,1500.0000,1500.0000,1478.0000
635790.1200,3.0000,1449.0000,1462.0000,1506.0000,9.0000,10.0000,0.0000,-102.0000,-66.0000,817.0000,0.3639,-0.0661,0.1280,0.9202,162.5500,-19.5200,-73.6800,-13.7400,-4.6600,4.0000,0.0000,0.0000,-0.0000,1500.0000,1498.0000,1500.0000,1478.0000
635806.6810,3.0000,1449.0000,1461.0000,1505.0000,9.0000,10.0000,-2.0000,-92.0000,-141.0000,828.0000,0.3640,-0.0680,0.1293,0.9199,162.5500,-19.5200,-73.6800,-13.7400,-4.6600,4.0000,0.0000,0.0000,-0.0000,1500.0000,1498.0000,1500.0000,1478.0000
635823.3770,3.0000,1449.0000,1462.0000,1506.0000,10.0000,8.0000,-4.0000,-146.0000,-72.0000,793.0000,0.3644,-0.0697,0.1307,0.9194,162.3600,-19.5900,-73.6100,-13.6700,-4.6700,4.1100,0.0000,0.0000,-0.0000,1500.0000,1498.0000,1500.0000,1478.0000
635840.0430,3.0000,1449.0000,1465.0000,1505.0000,10.0000,6.0000,-6.0000,-203.0000,-4.0000,828.0000,0.3652,-0.0711,0.1320,0.9188,162.1700,-19.6500,-73.5300,-13.6100,-4.6700,4.2100,0.0000,0.0000,-0.0000,1500.0000,1498.0000,1500.0000,1478.0000
635856.7800,3.0000,1449.0000,1463.0000,1505.0000,9.0000,6.0000,-8.0000,-164.0000,-117.0000,994.0000,0.3663,-0.0727,0.1331,0.9181,161.9900,-19.7200,-73.4600,-13.5400,-4.6600,4.3200,0.0000,0.0000,-0.0000,1500.0000,1498.0000,1500.0000,1478.0000
635873.4860,3.0000,1449.0000,1464.0000,1506.0000,10.0000,5.0000,-9.0000,-156.0000,-171.0000,1235.0000,0.3674,-0.0737,0.1344,0.9173,161.7800,-19.7900,-73.3800,-13.5000,-4.7000,4.4100,0.0000,0.0000,-0.0000,1500.0000,1500.0000,1500.0000,1478.0000
635890.4410,3.0000,1446.0000,1462.0000,1504.0000,7.0000,6.0000,-10.0000,-100.0000,-138.0000,1323.0000,0.3687,-0.0742,0.1358,0.9166,161.7800,-19.7900,-73.3800,-13.5000,-4.7000,4.4100,0.0000,0.0000,-0.0000,1500.0000,1500.0000,1500.0000,1476.0000
635907.0930,3.0000,1446.0000,1461.0000,1505.0000,8.0000,7.0000,-12.0000,-74.0000,-62.0000,1280.0000,0.3701,-0.0749,0.1369,0.9158,161.4700,-19.9100,-73.3000,-13.5500,-4.8300,4.4900,0.0000,0.0000,-0.0000,1500.0000,1500.0000,1500.0000,1476.0000
635923.7120,3.0000,1446.0000,1464.0000,1508.0000,11.0000,6.0000,-15.0000,-99.0000,-85.0000,1212.0000,0.3718,-0.0755,0.1384,0.9148,161.1600,-20.0300,-73.2200,-13.6000,-4.9500,4.5500,0.0000,0.0000,-0.0000,1500.0000,1500.0000,1500.0000,1476.0000
635940.3860,3.0000,1449.0000,1464.0000,1508.0000,10.0000,6.0000,-17.0000,-205.0000,-54.0000,1088.0000,0.3739,-0.0759,0.1400,0.9137,160.8500,-20.1500,-73.1300,-13.6500,-5.0600,4.6300,0.0000,0.0000,-0.0000,1500.0000,1500.0000,1500.0000,1478.0000
635957.5050,3.0000,1449.0000,1465.0000,1509.0000,13.0000,6.0000,-20.0000,-201.0000,-35.0000,1052.0000,0.3764,-0.0766,0.1419,0.9123,160.5500,-20.2700,-73.0500,-13.6700,-5.1500,4.7100,0.0000,0.0000,-0.0000,1500.0000,1498.0000,1500.0000,1478.0000
635974.2990,3.0000,1449.0000,1464.0000,1508.0000,11.0000,7.0000,-21.0000,-238.0000,-60.0000,1110.0000,0.3790,-0.0773,0.1439,0.9109,160.2400,-20.4000,-72.9600,-13.7000,-5.2300,4.8000,0.0000,0.0000,-0.0000,1500.0000,1498.0000,1500.0000,1478.0000
635990.9050,3.0000,1449.0000,1460.0000,1508.0000,7.0000,10.0000,-21.0000,-203.0000,-95.0000,1327.0000,0.3817,-0.0783,0.1456,0.9094,160.2400,-20.4000,-72.9600,-13.7000,-5.2300,4.8000,0.0000,0.0000,-0.0000,1500.0000,1500.0000,1500.0000,1478.0000
636007.6040,3.0000,1446.0000,1456.0000,1508.0000,4.0000,11.0000,-21.0000,-129.0000,-92.0000,1475.0000,0.3841,-0.0795,0.1468,0.9081,159.9200,-20.5300,-72.8700,-13.7400,-5.3300,4.8800,0.0000,0.0000,-0.0000,1500.0000,1497.0000,1500.0000,1476.0000
636024.1900,3.0000,1446.0000,1456.0000,1506.0000,2.0000,11.0000,-21.0000,-165.0000,-10.0000,1439.0000,0.3865,-0.0810,0.1479,0.9068,159.6100,-20.6600,-72.7800,-13.7700,-5.4200,4.9400,0.0000,0.0000,-0.0000,1500.0000,1500.0000,1500.0000,1476.0000
636040.8110,3.0000,1448.0000,1457.0000,1507.0000,3.0000,11.0000,-23.0000,-183.0000,-90.0000,1428.0000,0.3890,-0.0823,0.1488,0.9054,159.3000,-20.7900,-72.6900,-13.8000,-5.5100,4.9900,0.0000,0.0000,-0.0000,1500.0000,1498.0000,1500.0000,1478.0000
636057.6200,3.0000,1449.0000,1458.0000,1510.0000,6.0000,12.0000,-25.0000,-279.0000,-139.0000,1433.0000,0.3919,-0.0838,0.1499,0.9039,159.0000,-20.9200,-72.6000,-13.8200,-5.6000,5.0500,0.0000,0.0000,-0.0000,1500.0000,1500.0000,1500.0000,1478.0000
636074.2380,3.0000,1449.0000,1461.0000,1513.0000,10.0000,12.0000,-25.0000,-269.0000,-125.0000,1553.0000,0.3949,-0.0853,0.1515,0.9021,158.6900,-21.0600,-72.5000,-13.8300,-5.6900,5.1000,0.0000,0.0000,-0.0000,1500.0000,1500.0000,1500.0000,1478.0000
636091.0550,3.0000,1449.0000,1461.0000,1511.0000,10.0000,10.0000,-24.0000,-219.0000,-123.0000,1554.0000,0.3979,-0.0866,0.1531,0.9004,158.6900,-21.0600,-72.5000,-13.8300,-5.6900,5.1000,0.0000,0.0000,-0.0000,1500.0000,1500.0000,1500.0000,1478.0000
636107.8050,3.0000,1449.0000,1459.0000,1511.0000,7.0000,10.0000,-23.0000,-166.0000,-197.0000,1477.0000,0.4008,-0.0879,0.1544,0.8988,158.3800,-21.2000,-72.4100,-13.8500,-5.7800,5.1500,0.0000,0.0000,-0.0000,1500.0000,1500.0000,1500.0000,1478.0000
636124.4410,3.0000,1449.0000,1458.0000,1508.0000,4.0000,8.0000,-22.0000,-71.0000,-285.0000,1364.0000,0.4035,-0.0893,0.1552,0.8973,158.0600,-21.3400,-72.3100,-13.8700,-5.8800,5.2100,0.0000,0.0000,-0.0000,1500.0000,1500.0000,1500.0000,1478.0000
636140.9930,3.0000,1446.0000,1458.0000,1510.0000,6.0000,10.0000,-19.0000,-180.0000,-285.0000,1329.0000,0.4059,-0.0905,0.1560,0.8959,157.7600,-21.4800,-72.2100,-13.8800,-5.9800,5.2800,0.0000,0.0000,-0.0000,1500.0000,1498.0000,1500.0000,1476.0000
636158.1100,3.0000,1449.0000,1457.0000,1511.0000,5.0000,9.0000,-18.0000,-224.0000,-217.0000,1313.0000,0.4081,-0.0918,0.1570,0.8946,157.4500,-21.6200,-72.1100,-13.8800,-6.0700,5.3500,0.0000,0.0000,-0.0000,1500.0000,1497.0000,1500.0000,1478.0000
636174.7370,3.0000,1446.0000,1459.0000,1511.0000,7.0000,10.0000,-16.0000,-225.0000,-215.0000,1382.0000,0.4100,-0.0928,0.1583,0.8934,157.4500,-21.6200,-72.1100,-13.8800,-6.0700,5.3500,0.0000,0.0000,-0.0000,1500.0000,1500.0000,1500.0000,1476.0000
636191.7410,3.0000,1449.0000,1460.0000,1512.0000,8.0000,10.0000,-14.0000,-298.0000,-243.0000,1462.0000,0.4117,-0.0936,0.1598,0.8923,157.1400,-21.7600,-72.0100,-13.8800,-6.1500,5.4200,0.0000,0.0000,-0.0000,1500.0000,1500.0000,1500.0000,1478.0000
636208.4580,3.0000,1449.0000,1460.0000,1512.0000,8.0000,9.0000,-13.0000,-288.0000,-175.0000,1351.0000,0.4132,-0.0943,0.1613,0.8913,156.8300,-21.9100,-71.9100,-13.8800,-6.2400,5.4800,0.0000,0.0000,-0.0000,1500.0000,1500.0000,1500.0000,1478.0000
636225.0380,3.0000,1449.0000,1460.0000,1512.0000,9.0000,7.0000,-12.0000,-304.0000,-210.0000,1291.0000,0.4145,-0.0949,0.1627,0.8904,156.5200,-22.0600,-71.8000,-13.8800,-6.3100,5.5400,0.0000,0.0000,-0.0000,1500.0000,1498.0000,1500.0000,1478.0000
636241.6010,3.0000,1449.0000,1460.0000,1512.0000,8.0000,8.0000,-11.0000,-259.0000,-232.0000,1319.0000,0.4157,-0.0953,0.1641,0.8895,156.2200,-22.2100,-71.7000,-13.8600,-6.3800,5.6100,0.0000,0.0000,-0.0000,1500.0000,1498.0000,1500.0000,1478.0000
636258.5080,3.0000,1449.0000,1460.0000,1512.0000,9.0000,7.0000,-10.0000,-239.0000,-246.0000,1350.0000,0.4168,-0.0956,0.1654,0.8887,155.9200,-22.3600,-71.5900,-13.8500,-6.4500,5.6800,0.0000,0.0000,-0.0000,1500.0000,1497.0000,1500.0000,1478.0000
636275.3700,3.0000,1446.0000,1459.0000,1513.0000,8.0000,9.0000,-9.0000,-228.0000,-226.0000,1346.0000,0.4178,-0.0963,0.1667,0.8879,155.9200,-22.3600,-71.5900,-13.8500,-6.4500,5.6800,0.0000,0.0000,-0.0000,1500.0000,1500.0000,1500.0000,1476.0000
636292.0280,3.0000,1446.0000,1459.0000,1511.0000,6.0000,7.0000,-8.0000,-306.0000,-186.0000,1322.0000,0.4187,-0.0973,0.1681,0.8871,155.6200,-22.5000,-71.4800,-13.8400,-6.5300,5.7500,0.0000,0.0000,-0.0000,1500.0000,1498.0000,1500.0000,1476.0000
636308.7560,2.0000,1905.0000,1000.0000,1511.0000,5.0000,7.0000,-7.0000,-326.0000,-162.0000,1437.0000,0.4194,-0.0982,0.1692,0.8865,155.3000,-22.6600,-71.3700,-13.8300,-6.6100,5.8100,0.0000,0.0000,-0.0000,1939.0000,1048.0000,1500.0000,2000.0000
636325.4850,2.0000,2000.0000,1000.0000,1514.0000,3.0000,5.0000,-6.0000,-343.0000,-145.0000,1496.0000,0.4200,-0.0990,0.1700,0.8859,155.0000,-22.8200,-71.2600,-13.8200,-6.6900,5.8700,0.0000,0.0000,-0.0000,1939.0000,1048.0000,1500.0000,2000.0000
636342.4090,2.0000,2000.0000,1000.0000,1514.0000,2.0000,2.0000,-5.0000,-112.0000,-212.0000,1479.0000,0.4204,-0.0997,0.1702,0.8856,154.7000,-22.9700,-71.1500,-13.8100,-6.7700,5.9200,0.0000,0.0000,-0.0000,1939.0000,1048.0000,1500.0000,2000.0000
636359.2160,2.0000,2000.0000,1000.0000,1514.0000,10.0000,-6.0000,-9.0000,187.0000,-299.0000,1119.0000,0.4212,-0.0991,0.1703,0.8853,154.4000,-23.1300,-71.0400,-13.8000,-6.8600,5.9900,0.0000,0.0000,-0.0000,1939.0000,1048.0000,1500.0000,2000.0000
636375.6140,2.0000,2000.0000,1000.0000,1514.0000,37.0000,-31.0000,-15.0000,321.0000,-194.0000,373.0000,0.4234,-0.0955,0.1717,0.8844,154.4000,-23.1300,-71.0400,-13.8000,-6.8600,5.9900,0.0000,0.0000,-0.0000,1939.0000,1048.0000,1500.0000,2000.0000
636392.2440,2.0000,2000.0000,1000.0000,1513.0000,77.0000,-62.0000,-28.0000,500.0000,-341.0000,413.0000,0.4280,-0.0865,0.1758,0.8823,154.1000,-23.2900,-70.9300,-13.8200,-6.9700,6.1300,0.0000,0.0000,-0.0000,1926.0000,1062.0000,1500.0000,2000.0000
636408.7890,2.0000,2000.0000,1000.0000,1513.0000,117.0000,-93.0000,-44.0000,657.0000,-580.0000,1474.0000,0.4359,-0.0712,0.1829,0.8784,153.7600,-23.4800,-70.8200,-13.8500,-7.1200,6.3400,0.0000,0.0000,-0.0000,1926.0000,1062.0000,1500.0000,2000.0000
636425.3660,2.0000,2000.0000,1000.0000,1513.0000,142.0000,-104.0000,-54.0000,587.0000,-440.0000,2823.0000,0.4459,-0.0513,0.1928,0.8726,153.4100,-23.6900,-70.7000,-13.8700,-7.3500,6.4700,0.0000,0.0000,-0.0000,1926.0000,1062.0000,1500.0000,2000.0000
636442.0440,2.0000,2000.0000,1000.0000,1513.0000,156.0000,-114.0000,-60.0000,773.0000,-557.0000,4597.0000,0.4571,-0.0294,0.2041,0.8652,153.0800,-23.8900,-70.5900,-13.8400,-7.5900,6.4900,0.0000,0.0000,-0.0000,1926.0000,1062.0000,1500.0000,2000.0000
636459.2020,2.0000,2000.0000,1000.0000,1513.0000,166.0000,-125.0000,-62.0000,973.0000,-753.0000,6123.0000,0.4690,-0.0048,0.2162,0.8563,152.7800,-24.0800,-70.4600,-13.7400,-7.9000,6.3500,0.0000,0.0000,-0.0000,1926.0000,1062.0000,1500.0000,2000.0000
636475.9490,2.0000,2000.0000,1000.0000,1513.0000,174.0000,-128.0000,-62.0000,958.0000,-610.0000,6458.0000,0.4805,0.0209,0.2287,0.8464,152.7800,-24.0800,-70.4600,-13.7400,-7.9000,6.3500,0.0000,0.0000,-0.0000,1926.0000,1062.0000,1500.0000,2000.0000
636492.4740,2.0000,2000.0000,1000.0000,1513.0000,180.0000,-127.0000,-60.0000,979.0000,-727.0000,7131.0000,0.4912,0.0469,0.2413,0.8356,152.4500,-24.2900,-70.3400,-13.6200,-8.2300,6.1400,0.0000,0.0000,-0.0000,1926.0000,1062.0000,1500.0000,2000.0000
636509.2200,2.0000,2000.0000,1471.0000,2000.0000,185.0000,-126.0000,-55.0000,1160.0000,-749.0000,7767.0000,0.5008,0.0731,0.2549,0.8240,152.1100,-24.5200,-70.2000,-13.4600,-8.5700,5.8800,0.0000,0.0000,-0.0000,1058.0000,1029.0000,1500.0000,2000.0000
636525.9050,2.0000,2000.0000,1471.0000,2000.0000,178.0000,-123.0000,-51.0000,958.0000,-1022.0000,8205.0000,0.5092,0.0995,0.2680,0.8118,151.7800,-24.7400,-70.0700,-13.2300,-8.8800,5.5800,0.0000,0.0000,-0.0000,1058.0000,1029.0000,1500.0000,2000.0000
636542.6310,2.0000,2000.0000,1471.0000,2000.0000,131.0000,-121.0000,-38.0000,1117.0000,-1155.0000,8762.0000,0.5162,0.1235,0.2782,0.8005,151.4900,-24.9500,-69.9400,-12.9100,-9.1500,5.2600,0.0000,0.0000,-0.0000,1058.0000,1029.0000,1500.0000,2000.0000
636559.5380,2.0000,2000.0000,1471.0000,2000.0000,53.0000,-127.0000,-21.0000,1122.0000,-1295.0000,9264.0000,0.5228,0.1441,0.2804,0.7920,151.4900,-24.9500,-69.9400,-12.9100,-9.1500,5.2600,0.0000,0.0000,-0.0000,1058.0000,1029.0000,1500.0000,2000.0000
636576.0630,2.0000,2000.0000,1471.0000,2000.0000,-20.0000,-130.0000,-3.0000,1203.0000,-1349.0000,9712.0000,0.5287,0.1591,0.2727,0.7879,151.2200,-25.1600,-69.8200,-12.5300,-9.3900,4.9100,0.0000,0.0000,-0.0000,1058.0000,1029.0000,1500.0000,2000.0000
636593.0620,2.0000,2000.0000,1471.0000,2000.0000,-76.0000,-130.0000,15.0000,1212.0000,-1267.0000,10015.0000,0.5340,0.1702,0.2565,0.7875,150.9200,-25.3800,-69.6900,-12.1600,-9.6800,4.5100,0.0000,0.0000,-0.0000,1058.0000,1029.0000,1500.0000,2000.0000
636609.9780,2.0000,2000.0000,1000.0000,1465.0000,-117.0000,-121.0000,26.0000,1042.0000,-1188.0000,9745.0000,0.5385,0.1779,0.2346,0.7895,150.6200,-25.6200,-69.5700,-11.8100,-9.9700,4.0800,0.0000,0.0000,-0.0000,1971.0000,1065.0000,1500.0000,2000.0000
636626.7730,2.0000,2000.0000,1000.0000,1465.0000,-135.0000,-115.0000,32.0000,951.0000,-820.0000,9589.0000,0.5421,0.1822,0.2097,0.7930,150.3500,-25.8500,-69.4700,-11.4700,-10.1700,3.6100,0.0000,0.0000,-0.0000,1971.0000,1065.0000,1500.0000,2000.0000
636643.9540,2.0000,2000.0000,1000.0000,1465.0000,-112.0000,-117.0000,28.0000,960.0000,-555.0000,8977.0000,0.5454,0.1868,0.1843,0.7961,150.1000,-26.0700,-69.3700,-11.2100,-10.2700,3.1300,0.0000,0.0000,-0.0000,1971.0000,1065.0000,1500.0000,2000.0000
636660.8490,2.0000,2000.0000,1000.0000,1465.0000,-61.0000,-126.0000,15.0000,1186.0000,-508.0000,9564.0000,0.5482,0.1946,0.1633,0.7968,150.1000,-26.0700,-69.3700,-11.2100,-10.2700,3.1300,0.0000,0.0000,-0.0000,1971.0000,1065.0000,1500.0000,2000.0000
636677.4870,2.0000,2000.0000,1000.0000,1465.0000,-3.0000,-129.0000,-5.0000,1178.0000,-371.0000,9808.0000,0.5515,0.2069,0.1493,0.7942,149.8400,-26.3100,-69.2800,-10.9300,-10.4600,2.6000,0.0000,0.0000,-0.0000,1971.0000,1065.0000,1500.0000,2000.0000
636694.2440,2.0000,2000.0000,1000.0000,1496.0000,46.0000,-124.0000,-24.0000,1246.0000,-511.0000,10666.0000,0.5551,0.2230,0.1422,0.7886,149.5700,-26.5600,-69.2100,-10.6200,-10.6900,2.0200,0.0000,0.0000,-0.0000,1926.0000,1045.0000,1500.0000,2000.0000
636711.0480,2.0000,2000.0000,1000.0000,1530.0000,77.0000,-110.0000,-41.0000,1294.0000,-565.0000,10777.0000,0.5590,0.2408,0.1413,0.7807,149.3200,-26.8000,-69.1400,-10.2500,-10.8500,1.3800,0.0000,0.0000,-0.0000,1926.0000,1045.0000,1500.0000,2000.0000
636727.6570,2.0000,2000.0000,1000.0000,1530.0000,100.0000,-93.0000,-54.0000,1196.0000,-396.0000,10310.0000,0.5632,0.2584,0.1450,0.7714,149.0900,-27.0400,-69.0900,-9.8700,-10.9700,0.7400,0.0000,0.0000,-0.0000,1926.0000,1045.0000,1500.0000,2000.0000
636744.5520,2.0000,2000.0000,1000.0000,1530.0000,110.0000,-88.0000,-65.0000,857.0000,-241.0000,8889.0000,0.5676,0.2762,0.1517,0.7606,148.8700,-27.2700,-69.0500,-9.5400,-11.0300,0.1900,0.0000,0.0000,-0.0000,1926.0000,1045.0000,1500.0000,2000.0000
636761.5180,2.0000,2000.0000,1000.0000,1530.0000,115.0000,-87.0000,-72.0000,822.0000,-396.0000,8488.0000,0.5723,0.2939,0.1600,0.7486,148.8700,-27.2700,-69.0500,-9.5400,-11.0300,0.1900,0.0000,0.0000,-0.0000,1926.0000,1045.0000,1500.0000,2000.0000
636778.1060,2.0000,2000.0000,1000.0000,1530.0000,119.0000,-83.0000,-77.0000,906.0000,-470.0000,8295.0000,0.5771,0.3109,0.1688,0.7361,148.6700,-27.4800,-69.0200,-9.2800,-11.0300,-0.2100,0.0000,0.0000,-0.0000,1926.0000,1045.0000,1500.0000,2000.0000
636795.0030,2.0000,2000.0000,1000.0000,1562.0000,127.0000,-85.0000,-80.0000,956.0000,-571.0000,8171.0000,0.5817,0.3284,0.1787,0.7224,148.4600,-27.7300,-68.9900,-8.9100,-11.2000,-0.5700,0.0000,0.0000,-0.0000,1862.0000,1074.0000,1500.0000,2000.0000
636811.8370,2.0000,2000.0000,1000.0000,1565.0000,134.0000,-84.0000,-81.0000,1073.0000,-732.0000,8193.0000,0.5858,0.3461,0.1891,0.7080,148.2400,-27.9900,-68.9600,-8.5100,-11.4200,-0.8900,0.0000,0.0000,-0.0000,1862.0000,1074.0000,1500.0000,2000.0000
636828.4720,2.0000,2000.0000,1000.0000,1565.0000,142.0000,-95.0000,-82.0000,1115.0000,-878.0000,8156.0000,0.5892,0.3649,0.2000,0.6926,148.0400,-28.2400,-68.9400,-8.0900,-11.6200,-1.1500,0.0000,0.0000,-0.0000,1862.0000,1074.0000,1500.0000,2000.0000
636845.3610,2.0000,2000.0000,1000.0000,1565.0000,142.0000,-103.0000,-81.0000,971.0000,-1033.0000,7980.0000,0.5923,0.3846,0.2104,0.6760,147.8600,-28.4900,-68.9200,-7.6900,-11.7700,-1.3400,0.0000,0.0000,-0.0000,1862.0000,1074.0000,1500.0000,2000.0000
636862.3550,2.0000,2000.0000,1000.0000,1565.0000,143.0000,-109.0000,-77.0000,1041.0000,-1128.0000,8149.0000,0.5950,0.4050,0.2198,0.6585,147.8600,-28.4900,-68.9200,-7.6900,-11.7700,-1.3400,0.0000,0.0000,-0.0000,1862.0000,1074.0000,1500.0000,2000.0000
636879.0140,2.0000,2000.0000,1000.0000,1565.0000,142.0000,-117.0000,-74.0000,1011.0000,-1085.0000,8166.0000,0.5969,0.4256,0.2283,0.6406,147.6700,-28.7800,-68.9000,-7.1500,-11.9900,-1.4800,0.0000,0.0000,-0.0000,1862.0000,1074.0000,1500.0000,2000.0000
636895.7010,2.0000,2000.0000,1000.0000,1655.0000,141.0000,-125.0000,-68.0000,1050.0000,-1231.0000,8456.0000,0.5985,0.4466,0.2354,0.6221,147.4900,-29.0800,-68.8800,-6.5700,-12.1900,-1.6000,0.0000,0.0000,-0.0000,1789.0000,1056.0000,1500.0000,2000.0000
636912.2840,2.0000,2000.0000,1000.0000,1656.0000,141.0000,-126.0000,-62.0000,846.0000,-1081.0000,8253.0000,0.5992,0.4677,0.2413,0.6034,147.3200,-29.3700,-68.8600,-6.0100,-12.3300,-1.6800,0.0000,0.0000,-0.0000,1789.0000,1056.0000,1500.0000,2000.0000
636929.3110,2.0000,2000.0000,1000.0000,1656.0000,135.0000,-133.0000,-58.0000,716.0000,-903.0000,8179.0000,0.5990,0.4889,0.2465,0.5842,147.1800,-29.6400,-68.8400,-5.5000,-12.3900,-1.7000,0.0000,0.0000,-0.0000,1789.0000,1056.0000,1500.0000,2000.0000
636946.3550,2.0000,2000.0000,1000.0000,1656.0000,121.0000,-132.0000,-49.0000,846.0000,-942.0000,8503.0000,0.5989,0.5095,0.2497,0.5651,147.0600,-29.8900,-68.8300,-5.0400,-12.3900,-1.6900,0.0000,0.0000,-0.0000,1789.0000,1056.0000,1500.0000,2000.0000
636963.1820,2.0000,2000.0000,1000.0000,1656.0000,111.0000,-143.0000,-43.0000,1147.0000,-1124.0000,9066.0000,0.5988,0.5293,0.2506,0.5463,147.0600,-29.8900,-68.8300,-5.0400,-12.3900,-1.6900,0.0000,0.0000,-0.0000,1789.0000,1056.0000,1500.0000,2000.0000
636980.0050,2.0000,2000.0000,1000.0000,1656.0000,100.0000,-142.0000,-37.0000,1193.0000,-1097.0000,9256.0000,0.5989,0.5481,0.2496,0.5278,146.9400,-30.1900,-68.8100,-4.3100,-12.4600,-1.6600,0.0000,0.0000,-0.0000,1789.0000,1056.0000,1500.0000,2000.0000
636996.7850,2.0000,2000.0000,1000.0000,1656.0000,88.0000,-146.0000,-33.0000,1170.0000,-879.0000,9225.0000,0.5989,0.5659,0.2473,0.5098,146.8300,-30.4900,-68.7900,-3.5100,-12.5200,-1.6000,0.0000,0.0000,-0.0000,1789.0000,1056.0000,1500.0000,2000.0000
637013.7870,2.0000,2000.0000,1439.0000,2000.0000,79.0000,-152.0000,-31.0000,1256.0000,-833.0000,9503.0000,0.5994,0.5831,0.2432,0.4915,146.7500,-30.7700,-68.7800,-2.7800,-12.5100,-1.5400,0.0000,0.0000,-0.0000,1088.0000,1027.0000,1500.0000,2000.0000
637030.5860,2.0000,2000.0000,1439.0000,2000.0000,64.0000,-159.0000,-29.0000,1280.0000,-943.0000,9966.0000,0.6006,0.5993,0.2375,0.4730,146.6800,-31.0400,-68.7600,-2.0800,-12.4300,-1.4600,0.0000,0.0000,-0.0000,1088.0000,1027.0000,1500.0000,2000.0000
637047.6040,2.0000,2000.0000,1439.0000,2000.0000,21.0000,-154.0000,-22.0000,1247.0000,-872.0000,10200.0000,0.6037,0.6129,0.2293,0.4553,146.6300,-31.3000,-68.7500,-1.4100,-12.2800,-1.3400,0.0000,0.0000,-0.0000,1088.0000,1027.0000,1500.0000,2000.0000
637064.3980,2.0000,2000.0000,1439.0000,2000.0000,-32.0000,-146.0000,-11.0000,1323.0000,-968.0000,10636.0000,0.6101,0.6214,0.2173,0.4408,146.6300,-31.3000,-68.7500,-1.4100,-12.2800,-1.3400,0.0000,0.0000,-0.0000,1088.0000,1027.0000,1500.0000,2000.0000
637081.3220,2.0000,2000.0000,1439.0000,2000.0000,-72.0000,-134.0000,1.0000,1264.0000,-834.0000,10194.0000,0.6194,0.6254,0.2019,0.4294,146.5900,-31.5900,-68.7300,-0.6400,-12.2200,-1.2100,0.0000,0.0000,-0.0000,1088.0000,1027.0000,1500.0000,2000.0000
637098.1590,2.0000,2000.0000,1439.0000,2000.0000,-98.0000,-125.0000,8.0000,1155.0000,-592.0000,9841.0000,0.6304,0.6256,0.1848,0.4208,146.5700,-31.8900,-68.7100,0.1300,-12.2200,-1.0800,0.0000,0.0000,-0.0000,1088.0000,1027.0000,1500.0000,2000.0000
637115.0280,2.0000,2000.0000,1000.0000,1463.0000,-119.0000,-119.0000,11.0000,1242.0000,-652.0000,10101.0000,0.6426,0.6228,0.1665,0.4140,146.5600,-32.1800,-68.6900,0.7600,-12.1700,-0.9800,0.0000,0.0000,-0.0000,1974.0000,1064.0000,1500.0000,2000.0000
637131.8280,2.0000,2000.0000,1000.0000,1463.0000,-117.0000,-115.0000,13.0000,1223.0000,-698.0000,9693.0000,0.6554,0.6183,0.1475,0.4079,146.5600,-32.4600,-68.6600,1.3200,-12.0800,-0.9100,0.0000,0.0000,-0.0000,1974.0000,1064.0000,1500.0000,2000.0000
637149.0980,2.0000,2000.0000,1000.0000,1463.0000,-80.0000,-122.0000,6.0000,1115.0000,-489.0000,8933.0000,0.6664,0.6154,0.1290,0.4006,146.5700,-32.7200,-68.6300,1.7400,-12.0000,-0.8500,0.0000,0.0000,-0.0000,1974.0000,1064.0000,1500.0000,2000.0000
637166.0040,2.0000,2000.0000,1000.0000,1463.0000,-31.0000,-124.0000,-8.0000,1110.0000,-494.0000,9001.0000,0.6736,0.6171,0.1139,0.3905,146.5700,-32.7200,-68.6300,1.7400,-12.0000,-0.8500,0.0000,0.0000,-0.0000,1974.0000,1064.0000,1500.0000,2000.0000
637182.6700,2.0000,2000.0000,1000.0000,1463.0000,15.0000,-121.0000,-24.0000,1298.0000,-399.0000,9434.0000,0.6769,0.6228,0.1034,0.3785,146.5900,-33.0200,-68.6100,2.1300,-11.9900,-0.8200,0.0000,0.0000,-0.0000,1974.0000,1064.0000,1500.0000,2000.0000
637199.4580,2.0000,2000.0000,1000.0000,1463.0000,54.0000,-110.0000,-39.0000,1323.0000,-621.0000,9868.0000,0.6768,0.6320,0.0971,0.3647,146.6100,-33.3400,-68.5800,2.5500,-11.9600,-0.8000,0.0000,0.0000,-0.0000,1974.0000,1064.0000,1500.0000,2000.0000
637216.1880,2.0000,2000.0000,1000.0000,1723.0000,83.0000,-96.0000,-51.0000,1192.0000,-712.0000,9569.0000,0.6738,0.6436,0.0954,0.3503,146.6500,-33.6400,-68.5600,2.9400,-11.8500,-0.7700,0.0000,0.0000,-0.0000,1750.0000,1028.0000,1500.0000,2000.0000
637233.3010,2.0000,2000.0000,1000.0000,1724.0000,109.0000,-89.0000,-63.0000,1040.0000,-427.0000,8449.0000,0.6683,0.6573,0.0970,0.3346,146.6800,-33.9200,-68.5400,3.2300,-11.7800,-0.6800,0.0000,0.0000,-0.0000,1750.0000,1028.0000,1500.0000,2000.0000
637250.2300,2.0000,2000.0000,1000.0000,1724.0000,122.0000,-85.0000,-71.0000,1041.0000,-227.0000,7564.0000,0.6608,0.6720,0.1015,0.3183,146.7200,-34.1900,-68.5100,3.3600,-11.8200,-0.5800,0.0000,0.0000,-0.0000,1750.0000,1028.0000,1500.0000,2000.0000
637266.9390,2.0000,2000.0000,1000.0000,1724.0000,99.0000,-102.0000,-77.0000,916.0000,-133.0000,6432.0000,0.6543,0.6859,0.1055,0.3006,146.7200,-34.1900,-68.5100,3.3600,-11.8200,-0.5800,0.0000,0.0000,-0.0000,1750.0000,1028.0000,1500.0000,2000.0000
637283.8200,2.0000,2000.0000,1000.0000,1724.0000,75.0000,-130.0000,-80.0000,772.0000,-504.0000,6408.0000,0.6504,0.6977,0.1068,0.2807,146.7700,-34.5200,-68.4700,3.6900,-11.9600,-0.4400,0.0000,0.0000,-0.0000,1750.0000,1028.0000,1500.0000,2000.0000
637300.3740,2.0000,2000.0000,1000.0000,1724.0000,65.0000,-143.0000,-81.0000,881.0000,-645.0000,6767.0000,0.6485,0.7082,0.1053,0.2586,146.8300,-34.8700,-68.4400,4.0400,-12.1000,-0.2500,0.0000,0.0000,-0.0000,1750.0000,1028.0000,1500.0000,2000.0000
637317.1340,2.0000,2000.0000,1403.0000,2000.0000,62.0000,-163.0000,-81.0000,1171.0000,-718.0000,7698.0000,0.6472,0.7183,0.1020,0.2343,146.9000,-35.2000,-68.4000,4.3700,-12.1700,-0.0000,0.0000,0.0000,-0.0000,1122.0000,1025.0000,1500.0000,2000.0000
637334.2310,2.0000,2000.0000,1403.0000,2000.0000,57.0000,-173.0000,-81.0000,1282.0000,-840.0000,8493.0000,0.6459,0.7281,0.0970,0.2078,146.9700,-35.5100,-68.3600,4.6800,-12.1200,0.2900,0.0000,0.0000,-0.0000,1122.0000,1025.0000,1500.0000,2000.0000
637351.1900,2.0000,2000.0000,1403.0000,2000.0000,43.0000,-180.0000,-78.0000,1255.0000,-978.0000,9172.0000,0.6449,0.7369,0.0909,0.1808,147.0300,-35.7900,-68.3100,4.9600,-11.9600,0.6400,0.0000,0.0000,-0.0000,1122.0000,1025.0000,1500.0000,2000.0000
637368.1440,2.0000,2000.0000,1403.0000,2000.0000,7.0000,-178.0000,-65.0000,1413.0000,-1025.0000,9903.0000,0.6461,0.7427,0.0832,0.1549,147.0300,-35.7900,-68.3100,4.9600,-11.9600,0.6400,0.0000,0.0000,-0.0000,1122.0000,1025.0000,1500.0000,2000.0000
637384.9480,2.0000,2000.0000,1403.0000,2000.0000,-31.0000,-166.0000,-48.0000,1464.0000,-1114.0000,10331.0000,0.6507,0.7444,0.0732,0.1312,147.1500,-36.1100,-68.2500,5.5800,-11.5800,1.0400,0.0000,0.0000,-0.0000,1122.0000,1025.0000,1500.0000,2000.0000
637401.6740,2.0000,2000.0000,1403.0000,2000.0000,-64.0000,-157.0000,-32.0000,1575.0000,-1485.0000,10942.0000,0.6582,0.7420,0.0621,0.1112,147.2800,-36.4300,-68.1800,6.2400,-11.0900,1.4600,0.0000,0.0000,-0.0000,1122.0000,1025.0000,1500.0000,2000.0000
637418.4190,2.0000,2000.0000,1375.0000,2000.0000,-85.0000,-140.0000,-19.0000,1568.0000,-1277.0000,10971.0000,0.6679,0.7366,0.0501,0.0940,147.4200,-36.7100,-68.1100,6.7600,-10.5500,1.9000,0.0000,0.0000,-0.0000,1160.0000,1035.0000,1500.0000,2000.0000
637435.1760,2.0000,2000.0000,1375.0000,2000.0000,-96.0000,-127.0000,-11.0000,1473.0000,-950.0000,10704.0000,0.6785,0.7292,0.0385,0.0798,147.5500,-36.9600,-68.0400,7.1700,-9.9900,2.2900,0.0000,0.0000,-0.0000,1160.0000,1035.0000,1500.0000,2000.0000
637451.9930,2.0000,2000.0000,1375.0000,2000.0000,-100.0000,-121.0000,-5.0000,1498.0000,-966.0000,10433.0000,0.6895,0.7206,0.0268,0.0671,147.5500,-36.9600,-68.0400,7.1700,-9.9900,2.2900,0.0000,0.0000,-0.0000,1160.0000,1035.0000,1500.0000,2000.0000
637468.9790,2.0000,2000.0000,1375.0000,2000.0000,-105.0000,-117.0000,1.0000,1393.0000,-1030.0000,9952.0000,0.7008,0.7111,0.0144,0.0552,147.6900,-37.1800,-67.9600,7.4600,-9.5200,2.6000,0.0000,0.0000,-0.0000,1160.0000,1035.0000,1500.0000,2000.0000
637485.7420,2.0000,2000.0000,1375.0000,2000.0000,-104.0000,-117.0000,5.0000,1363.0000,-995.0000,9871.0000,0.7117,0.7011,0.0021,0.0444,147.8800,-37.4300,-67.8700,7.9800,-8.9700,2.8700,0.0000,0.0000,-0.0000,1160.0000,1035.0000,1500.0000,2000.0000
637502.5890,2.0000,2000.0000,1000.0000,1463.0000,-105.0000,-116.0000,7.0000,1156.0000,-675.0000,9090.0000,0.7223,0.6907,-0.0106,0.0338,148.0900,-37.6800,-67.7900,8.4800,-8.4500,3.1100,0.0000,0.0000,-0.0000,1974.0000,1065.0000,1500.0000,2000.0000
637519.2300,2.0000,2000.0000,1000.0000,1462.0000,-108.0000,-119.0000,8.0000,1259.0000,-725.0000,9307.0000,0.7326,0.6798,-0.0231,0.0237,148.2900,-37.9000,-67.7000,8.8600,-8.0300,3.3100,0.0000,0.0000,-0.0000,1974.0000,1065.0000,1500.0000,2000.0000
637536.0460,2.0000,2000.0000,1000.0000,1462.0000,-90.0000,-121.0000,8.0000,1150.0000,-633.0000,8854.0000,0.7422,0.6691,-0.0362,0.0134,148.4900,-38.1000,-67.6000,9.1600,-7.6300,3.4700,0.0000,0.0000,-0.0000,1974.0000,1065.0000,1500.0000,2000.0000
637553.0920,2.0000,2000.0000,1000.0000,1462.0000,-61.0000,-126.0000,-1.0000,1072.0000,-431.0000,8376.0000,0.7491,0.6606,-0.0494,0.0021,148.4900,-38.1000,-67.6000,9.1600,-7.6300,3.4700,0.0000,0.0000,-0.0000,1974.0000,1065.0000,1500.0000,2000.0000
637569.7090,2.0000,2000.0000,1000.0000,1462.0000,-15.0000,-131.0000,-15.0000,1253.0000,-363.0000,8886.0000,0.7516,0.6566,-0.0620,-0.0108,148.6800,-38.2800,-67.5100,9.3600,-7.3400,3.5800,0.0000,0.0000,-0.0000,1974.0000,1065.0000,1500.0000,2000.0000
637586.5810,2.0000,2000.0000,1000.0000,1462.0000,32.0000,-118.0000,-30.0000,1298.0000,-336.0000,9460.0000,0.7491,0.6579,-0.0731,-0.0248,148.9400,-38.4700,-67.4200,9.8500,-6.8600,3.6800,0.0000,0.0000,-0.0000,1974.0000,1065.0000,1500.0000,2000.0000
637603.0790,2.0000,2000.0000,1299.0000,1947.0000,69.0000,-110.0000,-46.0000,1402.0000,-525.0000,10036.0000,0.7428,0.6634,-0.0812,-0.0385,149.2100,-38.6600,-67.3300,10.2800,-6.3000,3.7600,0.0000,0.0000,-0.0000,1375.0000,1176.0000,1500.0000,2000.0000
637619.8050,2.0000,2000.0000,1300.0000,1948.0000,86.0000,-94.0000,-60.0000,1415.0000,-652.0000,9915.0000,0.7335,0.6721,-0.0869,-0.0523,149.4800,-38.8200,-67.2400,10.6200,-5.7400,3.8600,0.0000,0.0000,-0.0000,1375.0000,1176.0000,1500.0000,2000.0000
637636.7470,2.0000,2000.0000,1300.0000,1948.0000,80.0000,-87.0000,-66.0000,1334.0000,-332.0000,8938.0000,0.7232,0.6815,-0.0903,-0.0664,149.7300,-38.9600,-67.1600,10.9000,-5.2700,3.9900,0.0000,0.0000,-0.0000,1375.0000,1176.0000,1500.0000,2000.0000
637653.3950,2.0000,2000.0000,1300.0000,1948.0000,25.0000,-91.0000,-65.0000,1166.0000,-209.0000,7927.0000,0.7161,0.6871,-0.0927,-0.0806,149.7300,-38.9600,-67.1600,10.9000,-5.2700,3.9900,0.0000,0.0000,-0.0000,1375.0000,1176.0000,1500.0000,2000.0000
637669.9970,2.0000,2000.0000,1300.0000,1948.0000,-32.0000,-108.0000,-62.0000,926.0000,-350.0000,7171.0000,0.7146,0.6862,-0.0960,-0.0967,149.9800,-39.0900,-67.0700,11.1500,-5.0100,4.1200,0.0000,0.0000,-0.0000,1375.0000,1176.0000,1500.0000,2000.0000
637686.7420,2.0000,2000.0000,1300.0000,1948.0000,-60.0000,-128.0000,-56.0000,992.0000,-477.0000,7305.0000,0.7169,0.6803,-0.1009,-0.1145,150.3200,-39.2400,-66.9800,11.7600,-4.6200,4.2700,0.0000,0.0000,-0.0000,1375.0000,1176.0000,1500.0000,2000.0000
637703.5250,2.0000,2000.0000,1713.0000,1805.0000,-81.0000,-136.0000,-52.0000,1210.0000,-651.0000,8217.0000,0.7212,0.6712,-0.1076,-0.1337,150.6800,-39.3800,-66.8900,12.3300,-4.2200,4.4300,0.0000,0.0000,-0.0000,1241.0000,1453.0000,1500.0000,2000.0000
637720.4680,2.0000,2000.0000,1713.0000,1805.0000,-79.0000,-147.0000,-50.0000,1073.0000,-877.0000,8774.0000,0.7258,0.6605,-0.1155,-0.1538,151.0100,-39.4900,-66.8000,12.7400,-3.7800,4.6000,0.0000,0.0000,-0.0000,1241.0000,1453.0000,1500.0000,2000.0000
637737.2020,2.0000,2000.0000,1713.0000,1805.0000,-88.0000,-134.0000,-44.0000,1029.0000,-779.0000,9227.0000,0.7304,0.6491,-0.1232,-0.1729,151.3400,-39.6000,-66.7000,13.0200,-3.3700,4.7900,0.0000,0.0000,-0.0000,1241.0000,1453.0000,1500.0000,2000.0000
637754.0850,2.0000,2000.0000,1713.0000,1805.0000,-114.0000,-102.0000,-38.0000,1240.0000,-720.0000,10196.0000,0.7366,0.6363,-0.1287,-0.1896,151.3400,-39.6000,-66.7000,13.0200,-3.3700,4.7900,0.0000,0.0000,-0.0000,1241.0000,1453.0000,1500.0000,2000.0000
637770.9140,2.0000,2000.0000,1713.0000,1805.0000,-160.0000,-63.0000,-31.0000,1317.0000,-861.0000,10989.0000,0.7469,0.6197,-0.1298,-0.2028,151.6500,-39.6900,-66.6000,13.1900,-2.9200,4.9100,0.0000,0.0000,-0.0000,1241.0000,1453.0000,1500.0000,2000.0000
637787.8180,2.0000,2000.0000,1713.0000,1805.0000,-199.0000,-24.0000,-22.0000,1081.0000,-931.0000,10391.0000,0.7618,0.5989,-0.1259,-0.2123,152.0600,-39.7600,-66.5000,13.6500,-1.9600,4.9700,0.0000,0.0000,-0.0000,1241.0000,1453.0000,1500.0000,2000.0000
637804.6450,2.0000,2000.0000,1057.0000,1000.0000,-245.0000,14.0000,-12.0000,874.0000,-705.0000,8750.0000,0.7810,0.5736,-0.1170,-0.2178,152.4700,-39.8000,-66.3900,14.0200,-1.1300,4.9900,0.0000,0.0000,-0.0000,1990.0000,1548.0000,1500.0000,2000.0000
637821.6280,2.0000,2000.0000,1057.0000,1000.0000,-266.0000,35.0000,-5.0000,872.0000,-620.0000,7144.0000,0.8027,0.5445,-0.1042,-0.2198,152.8500,-39.8300,-66.2900,14.4200,-0.5800,4.9400,0.0000,0.0000,-0.0000,1990.0000,1548.0000,1500.0000,2000.0000
637838.5440,2.0000,2000.0000,1057.0000,1000.0000,-248.0000,53.0000,0.0000,742.0000,-697.0000,5296.0000,0.8240,0.5148,-0.0894,-0.2193,153.2300,-39.8500,-66.2000,14.8600,-0.2800,4.9100,0.0000,0.0000,-0.0000,1990.0000,1548.0000,1500.0000,2000.0000
637855.6100,2.0000,2000.0000,1057.0000,1000.0000,-183.0000,46.0000,-4.0000,756.0000,-774.0000,3401.0000,0.8412,0.4894,-0.0750,-0.2173,153.2300,-39.8500,-66.2000,14.8600,-0.2800,4.9100,0.0000,0.0000,-0.0000,1990.0000,1548.0000,1500.0000,2000.0000
637872.4020,2.0000,2000.0000,1057.0000,1000.0000,-68.0000,36.0000,-15.0000,447.0000,-452.0000,1606.0000,0.8505,0.4748,-0.0651,-0.2165,153.5900,-39.8700,-66.1100,15.3000,-0.1600,4.9000,0.0000,0.0000,-0.0000,1990.0000,1548.0000,1500.0000,2000.0000
637889.0510,2.0000,2000.0000,1057.0000,1000.0000,87.0000,40.0000,-33.0000,501.0000,-349.0000,1487.0000,0.8493,0.4779,-0.0592,-0.2164,154.0600,-39.8500,-66.0200,15.9400,0.3500,4.9600,0.0000,0.0000,-0.0000,1990.0000,1548.0000,1500.0000,2000.0000
637906.0830,2.0000,2000.0000,1946.0000,1732.0000,247.0000,56.0000,-48.0000,9.0000,27.0000,916.0000,0.8363,0.5006,-0.0556,-0.2165,154.5100,-39.8200,-65.9300,16.4800,0.7800,5.0400,0.0000,0.0000,-0.0000,1160.0000,1610.0000,1500.0000,2000.0000
637922.7010,2.0000,2000.0000,1948.0000,1732.0000,382.0000,96.0000,-57.0000,150.0000,23.0000,941.0000,0.8112,0.5415,-0.0521,-0.2145,154.9600,-39.7900,-65.8400,16.9300,1.0900,5.1200,0.0000,0.0000,-0.0000,1160.0000,1610.0000,1500.0000,2000.0000
637939.7520,2.0000,2000.0000,1948.0000,1732.0000,438.0000,124.0000,-57.0000,204.0000,75.0000,-610.0000,0.7750,0.5947,-0.0468,-0.2083,155.3800,-39.7500,-65.7600,17.3100,1.3200,5.2000,0.0000,0.0000,-0.0000,1160.0000,1610.0000,1500.0000,2000.0000
637956.8090,2.0000,2000.0000,1948.0000,1732.0000,388.0000,136.0000,-51.0000,343.0000,44.0000,-3146.0000,0.7352,0.6466,-0.0397,-0.1995,155.3800,-39.7500,-65.7600,17.3100,1.3200,5.2000,0.0000,0.0000,-0.0000,1160.0000,1610.0000,1500.0000,2000.0000
637973.3930,2.0000,2000.0000,1948.0000,1732.0000,268.0000,129.0000,-37.0000,755.0000,139.0000,-5271.0000,0.7025,0.6853,-0.0310,-0.1895,155.7800,-39.7100,-65.6900,17.7000,1.3200,5.2800,0.0000,0.0000,-0.0000,1160.0000,1610.0000,1500.0000,2000.0000
637990.4620,2.0000,2000.0000,1948.0000,1732.0000,94.0000,94.0000,-14.0000,569.0000,9.0000,-6446.0000,0.6832,0.7073,-0.0221,-0.1804,156.3000,-39.6200,-65.6300,18.3300,1.6200,5.1900,0.0000,0.0000,-0.0000,1160.0000,1610.0000,1500.0000,2000.0000
638007.2360,2.0000,1998.0000,2000.0000,1711.0000,-75.0000,69.0000,10.0000,472.0000,-66.0000,-6244.0000,0.6828,0.7098,-0.0143,-0.1726,156.7900,-39.5300,-65.5900,18.8600,1.7600,5.0200,0.0000,0.0000,-0.0000,1069.0000,1722.0000,1500.0000,1999.0000
638024.1080,2.0000,1998.0000,2000.0000,1711.0000,-212.0000,54.0000,36.0000,287.0000,-455.0000,-5462.0000,0.6989,0.6960,-0.0072,-0.1645,157.2600,-39.4500,-65.5900,19.2700,1.8800,4.8400,0.0000,0.0000,-0.0000,1069.0000,1722.0000,1500.0000,1999.0000
638040.8640,2.0000,1998.0000,2000.0000,1711.0000,-306.0000,48.0000,51.0000,527.0000,-425.0000,-4756.0000,0.7264,0.6696,-0.0004,-0.1553,157.7100,-39.3600,-65.6100,19.5400,2.0700,4.7400,0.0000,0.0000,-0.0000,1069.0000,1722.0000,1500.0000,1999.0000
638057.6270,2.0000,1998.0000,2000.0000,1711.0000,-369.0000,34.0000,54.0000,376.0000,-367.0000,-3812.0000,0.7597,0.6336,0.0057,-0.1464,157.7100,-39.3600,-65.6100,19.5400,2.0700,4.7400,0.0000,0.0000,-0.0000,1069.0000,1722.0000,1500.0000,1999.0000
638074.6320,2.0000,1998.0000,2000.0000,1711.0000,-417.0000,38.0000,52.0000,111.0000,-66.0000,-2557.0000,0.7966,0.5886,0.0133,-0.1367,158.1400,-39.2800,-65.6400,19.7400,2.3100,4.7000,0.0000,0.0000,-0.0000,1069.0000,1722.0000,1500.0000,1999.0000
638091.1530,2.0000,1998.0000,2000.0000,1711.0000,-439.0000,44.0000,44.0000,159.0000,280.0000,-1497.0000,0.8324,0.5390,0.0220,-0.1271,158.6800,-39.1200,-65.6900,19.9200,3.0400,4.6900,0.0000,0.0000,-0.0000,1069.0000,1722.0000,1500.0000,1999.0000
638108.0830,2.0000,1999.0000,1147.0000,1000.0000,-453.0000,70.0000,31.0000,194.0000,794.0000,-663.0000,0.8665,0.4842,0.0340,-0.1167,159.1700,-38.9600,-65.7400,20.0400,3.7600,4.6900,0.0000,0.0000,-0.0000,1988.0000,1587.0000,1500.0000,2000.0000
638125.1090,2.0000,2000.0000,1098.0000,1000.0000,-465.0000,87.0000,12.0000,176.0000,1007.0000,-315.0000,0.8974,0.4255,0.0501,-0.1060,159.6400,-38.7900,-65.7900,20.1000,4.4200,4.7500,0.0000,0.0000,-0.0000,1988.0000,1587.0000,1500.0000,2000.0000
638142.0560,2.0000,2000.0000,1098.0000,1000.0000,-473.0000,122.0000,-15.0000,410.0000,1312.0000,9.0000,0.9239,0.3635,0.0717,-0.0957,160.0800,-38.6300,-65.8400,20.1500,5.0100,4.8500,0.0000,0.0000,-0.0000,1988.0000,1587.0000,1500.0000,2000.0000
638159.2870,2.0000,2000.0000,1098.0000,1000.0000,-439.0000,149.0000,-46.0000,472.0000,1337.0000,-449.0000,0.9446,0.3005,0.0988,-0.0877,160.0800,-38.6300,-65.8400,20.1500,5.0100,4.8500,0.0000,0.0000,-0.0000,1988.0000,1587.0000,1500.0000,2000.0000
638175.9610,2.0000,2000.0000,1098.0000,1000.0000,-348.0000,172.0000,-71.0000,593.0000,950.0000,-1310.0000,0.9570,0.2464,0.1279,-0.0836,160.4900,-38.4600,-65.8800,20.1800,5.4900,4.9800,0.0000,0.0000,-0.0000,1988.0000,1587.0000,1500.0000,2000.0000
638192.9150,2.0000,2000.0000,1012.0000,1046.0000,-201.0000,207.0000,-94.0000,801.0000,486.0000,-2545.0000,0.9614,0.2075,0.1602,-0.0841,161.0100,-38.2200,-65.8900,20.3200,6.0000,5.2700,0.0000,0.0000,-0.0000,1972.0000,1481.0000,1500.0000,2000.0000
638209.7800,2.0000,2000.0000,1011.0000,1047.0000,8.0000,230.0000,-114.0000,579.0000,480.0000,-4309.0000,0.9573,0.1930,0.1953,-0.0903,161.5100,-37.9900,-65.9000,20.3700,6.4400,5.6600,0.0000,0.0000,-0.0000,1972.0000,1481.0000,1500.0000,2000.0000
638226.8260,2.0000,2000.0000,1011.0000,1047.0000,204.0000,214.0000,-139.0000,439.0000,613.0000,-7038.0000,0.9449,0.2081,0.2295,-0.1055,161.9600,-37.7700,-65.8900,20.2900,6.7200,6.1600,0.0000,0.0000,-0.0000,1972.0000,1481.0000,1500.0000,2000.0000
638243.4670,2.0000,2000.0000,1011.0000,1047.0000,332.0000,167.0000,-155.0000,-99.0000,728.0000,-10103.0000,0.9265,0.2438,0.2559,-0.1294,162.3900,-37.5600,-65.8900,20.0200,6.7700,6.6900,0.0000,0.0000,-0.0000,1972.0000,1481.0000,1500.0000,2000.0000
638260.2540,2.0000,2000.0000,1011.0000,1047.0000,427.0000,84.0000,-164.0000,-247.0000,299.0000,-11118.0000,0.9032,0.2912,0.2710,-0.1614,162.3900,-37.5600,-65.8900,20.0200,6.7700,6.6900,0.0000,0.0000,-0.0000,1972.0000,1481.0000,1500.0000,2000.0000
638277.0200,2.0000,2000.0000,1011.0000,1047.0000,504.0000,14.0000,-163.0000,12.0000,-284.0000,-8708.0000,0.8750,0.3470,0.2721,-0.2001,162.7800,-37.3600,-65.8900,19.6300,6.6000,7.2600,0.0000,0.0000,-0.0000,1972.0000,1481.0000,1500.0000,2000.0000
638293.9270,2.0000,2000.0000,1335.0000,2000.0000,552.0000,-42.0000,-152.0000,133.0000,-903.0000,-4969.0000,0.8407,0.4074,0.2613,-0.2427,163.2700,-37.1100,-65.8900,19.4200,6.5800,7.6100,0.0000,0.0000,-0.0000,1261.0000,1097.0000,1500.0000,2000.0000
638310.8850,2.0000,2000.0000,1335.0000,2000.0000,593.0000,-75.0000,-132.0000,270.0000,-1383.0000,-689.0000,0.8000,0.4696,0.2403,-0.2860,163.7200,-36.8800,-65.8900,19.3600,6.8000,7.9900,0.0000,0.0000,-0.0000,1261.0000,1097.0000,1500.0000,2000.0000
638327.6440,2.0000,2000.0000,1335.0000,2000.0000,624.0000,-64.0000,-94.0000,371.0000,-2177.0000,3157.0000,0.7523,0.5321,0.2128,-0.3250,164.1400,-36.6600,-65.8700,19.3600,7.3500,8.3100,0.0000,0.0000,-0.0000,1261.0000,1097.0000,1500.0000,2000.0000
638344.5240,2.0000,2000.0000,1335.0000,2000.0000,604.0000,-43.0000,-46.0000,908.0000,-2462.0000,6266.0000,0.6990,0.5934,0.1812,-0.3556,164.5300,-36.4300,-65.8200,19.2700,8.1700,8.7900,0.0000,0.0000,-0.0000,1261.0000,1097.0000,1500.0000,2000.0000
638361.5550,2.0000,2000.0000,1335.0000,2000.0000,523.0000,-16.0000,5.0000,1329.0000,-2444.0000,7792.0000,0.6462,0.6480,0.1492,-0.3744,164.5300,-36.4300,-65.8200,19.2700,8.1700,8.7900,0.0000,0.0000,-0.0000,1261.0000,1097.0000,1500.0000,2000.0000
638378.1040,2.0000,2000.0000,1335.0000,2000.0000,410.0000,-25.0000,52.0000,1141.0000,-2142.0000,7212.0000,0.6030,0.6897,0.1188,-0.3829,164.9100,-36.2000,-65.7500,19.0900,9.1300,9.3300,0.0000,0.0000,-0.0000,1261.0000,1097.0000,1500.0000,2000.0000
638394.8660,2.0000,1992.0000,1242.0000,1958.0000,286.0000,-54.0000,93.0000,897.0000,-1511.0000,6472.0000,0.5720,0.7183,0.0880,-0.3860,165.3800,-35.8900,-65.6200,19.0000,10.0300,9.9500,0.0000,0.0000,-0.0000,1412.0000,1146.0000,1500.0000,1993.0000
638411.8280,2.0000,1992.0000,1233.0000,1941.0000,167.0000,-88.0000,122.0000,169.0000,-944.0000,5776.0000,0.5547,0.7340,0.0572,-0.3876,165.8200,-35.5900,-65.4700,18.9100,10.6900,10.5500,0.0000,0.0000,-0.0000,1412.0000,1146.0000,1500.0000,1993.0000
638428.7530,2.0000,1992.0000,1233.0000,1941.0000,70.0000,-139.0000,149.0000,284.0000,-1137.0000,6472.0000,0.5508,0.7376,0.0267,-0.3896,166.2400,-35.3000,-65.2900,18.7800,11.1800,11.0700,0.0000,0.0000,-0.0000,1412.0000,1146.0000,1500.0000,1993.0000
638445.4830,2.0000,1992.0000,1233.0000,1941.0000,12.0000,-176.0000,164.0000,611.0000,-1132.0000,7801.0000,0.5560,0.7319,-0.0053,-0.3940,166.6200,-35.0200,-65.0900,18.5700,11.6400,11.6300,0.0000,0.0000,-0.0000,1412.0000,1146.0000,1500.0000,1993.0000
638462.5620,2.0000,1992.0000,1233.0000,1941.0000,-30.0000,-202.0000,165.0000,694.0000,-724.0000,9236.0000,0.5663,0.7189,-0.0385,-0.4012,166.6200,-35.0200,-65.0900,18.5700,11.6400,11.6300,0.0000,0.0000,-0.0000,1412.0000,1146.0000,1500.0000,1993.0000
638479.2540,2.0000,1992.0000,1233.0000,1941.0000,-63.0000,-222.0000,154.0000,680.0000,-180.0000,10762.0000,0.5793,0.7012,-0.0694,-0.4099,166.9800,-34.7500,-64.8600,18.2500,12.1600,12.1500,0.0000,0.0000,-0.0000,1412.0000,1146.0000,1500.0000,1993.0000
638496.0990,2.0000,1999.0000,1702.0000,1878.0000,-97.0000,-224.0000,135.0000,919.0000,-42.0000,12186.0000,0.5937,0.6789,-0.0982,-0.4206,167.4100,-34.4400,-64.6000,17.7700,12.6700,12.5400,0.0000,0.0000,-0.0000,1208.0000,1412.0000,1500.0000,2000.0000
638513.1360,2.0000,2000.0000,1705.0000,1879.0000,-124.0000,-224.0000,99.0000,1170.0000,581.0000,13435.0000,0.6090,0.6530,-0.1220,-0.4333,167.8000,-34.1300,-64.3200,17.1900,13.2300,12.8000,0.0000,0.0000,-0.0000,1208.0000,1412.0000,1500.0000,2000.0000
638529.7890,2.0000,2000.0000,1705.0000,1879.0000,-139.0000,-223.0000,59.0000,1590.0000,804.0000,14867.0000,0.6223,0.6254,-0.1405,-0.4493,168.1600,-33.8300,-64.0500,16.5300,13.8300,12.9000,0.0000,0.0000,-0.0000,1208.0000,1412.0000,1500.0000,2000.0000
638546.5920,2.0000,2000.0000,1705.0000,1879.0000,-181.0000,-189.0000,32.0000,1689.0000,394.0000,16613.0000,0.6357,0.5961,-0.1520,-0.4664,168.4900,-33.5300,-63.7700,15.7800,14.4500,12.8700,0.0000,0.0000,-0.0000,1208.0000,1412.0000,1500.0000,2000.0000
638563.5350,2.0000,2000.0000,1705.0000,1879.0000,-234.0000,-119.0000,10.0000,1552.0000,606.0000,17448.0000,0.6517,0.5652,-0.1534,-0.4819,168.4900,-33.5300,-63.7700,15.7800,14.4500,12.8700,0.0000,0.0000,-0.0000,1208.0000,1412.0000,1500.0000,2000.0000
638580.4840,2.0000,2000.0000,1705.0000,1879.0000,-299.0000,-24.0000,-3.0000,1411.0000,572.0000,17638.0000,0.6727,0.5336,-0.1405,-0.4929,168.8000,-33.2400,-63.4900,14.9500,15.0200,12.6700,0.0000,0.0000,-0.0000,1208.0000,1412.0000,1500.0000,2000.0000
638597.1940,2.0000,2000.0000,1705.0000,1879.0000,-343.0000,72.0000,-13.0000,1109.0000,601.0000,15235.0000,0.6975,0.5038,-0.1132,-0.4969,169.1400,-32.9100,-63.2000,14.0900,15.5100,12.2800,0.0000,0.0000,-0.0000,1208.0000,1412.0000,1500.0000,2000.0000
638614.0190,2.0000,2000.0000,1284.0000,2000.0000,-356.0000,129.0000,-18.0000,795.0000,766.0000,12326.0000,0.7240,0.4744,-0.0743,-0.4952,169.4500,-32.5800,-62.9300,13.5000,15.8400,11.8200,0.0000,0.0000,-0.0000,1235.0000,1019.0000,1500.0000,2000.0000
638630.9290,2.0000,2000.0000,1284.0000,2000.0000,-338.0000,189.0000,-23.0000,720.0000,719.0000,8241.0000,0.7480,0.4482,-0.0294,-0.4886,169.7500,-32.2600,-62.6600,13.3200,15.8600,11.3800,0.0000,0.0000,-0.0000,1235.0000,1019.0000,1500.0000,2000.0000
638647.8480,2.0000,2000.0000,1284.0000,2000.0000,-289.0000,166.0000,-30.0000,335.0000,575.0000,3577.0000,0.7670,0.4258,0.0150,-0.4797,170.0200,-31.9800,-62.4000,13.5500,15.4100,11.1700,0.0000,0.0000,-0.0000,1235.0000,1019.0000,1500.0000,2000.0000
638664.6850,2.0000,2000.0000,1284.0000,2000.0000,-236.0000,132.0000,-41.0000,386.0000,745.0000,-157.0000,0.7803,0.4063,0.0533,-0.4725,170.0200,-31.9800,-62.4000,13.5500,15.4100,11.1700,0.0000,0.0000,-0.0000,1235.0000,1019.0000,1500.0000,2000.0000
638681.3640,2.0000,2000.0000,1284.0000,2000.0000,-193.0000,65.0000,-55.0000,243.0000,675.0000,-1956.0000,0.7886,0.3883,0.0821,-0.4697,170.3100,-31.7200,-62.1500,13.9700,14.5600,11.2100,0.0000,0.0000,-0.0000,1235.0000,1019.0000,1500.0000,2000.0000
638698.0730,2.0000,2000.0000,1284.0000,2000.0000,-171.0000,-9.0000,-64.0000,154.0000,152.0000,-2100.0000,0.7944,0.3683,0.1008,-0.4724,170.6700,-31.4700,-61.8800,14.3900,13.4800,11.4700,0.0000,0.0000,-0.0000,1235.0000,1019.0000,1500.0000,2000.0000
638714.7110,2.0000,2000.0000,1395.0000,2000.0000,-171.0000,-58.0000,-68.0000,-186.0000,-72.0000,-715.0000,0.7995,0.3452,0.1124,-0.4785,171.0100,-31.2500,-61.6000,14.6800,12.5000,11.8200,0.0000,0.0000,-0.0000,1134.0000,1029.0000,1500.0000,2000.0000
638731.5860,2.0000,2000.0000,1395.0000,2000.0000,-173.0000,-104.0000,-65.0000,-67.0000,-248.0000,1999.0000,0.8049,0.3179,0.1183,-0.4868,171.3400,-31.0700,-61.3300,14.8500,11.7300,12.0600,0.0000,0.0000,-0.0000,1134.0000,1029.0000,1500.0000,2000.0000
638748.6270,2.0000,2000.0000,1395.0000,2000.0000,-179.0000,-126.0000,-59.0000,-25.0000,-586.0000,4589.0000,0.8109,0.2871,0.1205,-0.4956,171.6400,-30.9100,-61.0500,14.9300,11.2600,12.0700,0.0000,0.0000,-0.0000,1134.0000,1029.0000,1500.0000,2000.0000
638765.6340,2.0000,2000.0000,1395.0000,2000.0000,-179.0000,-145.0000,-51.0000,120.0000,-1076.0000,6880.0000,0.8169,0.2540,0.1199,-0.5038,171.6400,-30.9100,-61.0500,14.9300,11.2600,12.0700,0.0000,0.0000,-0.0000,1134.0000,1029.0000,1500.0000,2000.0000
638782.0910,2.0000,2000.0000,1395.0000,2000.0000,-168.0000,-156.0000,-43.0000,233.0000,-1220.0000,8453.0000,0.8223,0.2214,0.1164,-0.5111,171.9500,-30.7500,-60.7700,14.8300,11.0700,11.9200,0.0000,0.0000,-0.0000,1134.0000,1029.0000,1500.0000,2000.0000
638798.7730,2.0000,2000.0000,1182.0000,2000.0000,-151.0000,-151.0000,-32.0000,546.0000,-1148.0000,9623.0000,0.8273,0.1899,0.1108,-0.5169,172.2800,-30.5600,-60.4800,14.4500,11.2000,11.5900,0.0000,0.0000,-0.0000,1384.0000,1024.0000,1500.0000,2000.0000
638815.5240,2.0000,2000.0000,1139.0000,2000.0000,-138.0000,-152.0000,-20.0000,730.0000,-1264.0000,10256.0000,0.8320,0.1604,0.1042,-0.5208,172.5900,-30.3800,-60.1900,14.1200,11.3500,11.1100,0.0000,0.0000,-0.0000,1384.0000,1024.0000,1500.0000,2000.0000
638832.4260,2.0000,2000.0000,1139.0000,2000.0000,-117.0000,-156.0000,-5.0000,883.0000,-1542.0000,11060.0000,0.8367,0.1324,0.0957,-0.5228,172.8700,-30.2000,-59.9100,13.8300,11.4600,10.5300,0.0000,0.0000,-0.0000,1384.0000,1024.0000,1500.0000,2000.0000
638849.6500,2.0000,2000.0000,1139.0000,2000.0000,-88.0000,-164.0000,3.0000,888.0000,-1511.0000,11703.0000,0.8412,0.1070,0.0838,-0.5234,173.1200,-30.0400,-59.6400,13.5800,11.5500,9.8300,0.0000,0.0000,-0.0000,1384.0000,1024.0000,1500.0000,2000.0000
638866.4640,2.0000,2000.0000,1139.0000,2000.0000,-63.0000,-174.0000,10.0000,972.0000,-1538.0000,12599.0000,0.8450,0.0846,0.0684,-0.5235,173.1200,-30.0400,-59.6400,13.5800,11.5500,9.8300,0.0000,0.0000,-0.0000,1384.0000,1024.0000,1500.0000,2000.0000
638883.2810,2.0000,2000.0000,1139.0000,2000.0000,-56.0000,-176.0000,18.0000,1141.0000,-1453.0000,13545.0000,0.8485,0.0639,0.0509,-0.5229,173.3800,-29.8500,-59.4000,13.3400,11.7400,9.0000,0.0000,0.0000,-0.0000,1384.0000,1024.0000,1500.0000,2000.0000
638900.1070,2.0000,2000.0000,1169.0000,2000.0000,-61.0000,-169.0000,25.0000,1274.0000,-1416.0000,13975.0000,0.8519,0.0433,0.0336,-0.5209,173.6600,-29.6200,-59.1600,13.0600,12.1200,8.0200,0.0000,0.0000,-0.0000,1347.0000,1017.0000,1500.0000,2000.0000
638916.7750,2.0000,2000.0000,1169.0000,2000.0000,-66.0000,-157.0000,30.0000,1307.0000,-1237.0000,14548.0000,0.8551,0.0231,0.0179,-0.5177,173.9200,-29.3900,-58.9600,12.8200,12.4100,6.9600,0.0000,0.0000,-0.0000,1347.0000,1017.0000,1500.0000,2000.0000
638933.5630,2.0000,2000.0000,1169.0000,2000.0000,-77.0000,-138.0000,29.0000,1155.0000,-1051.0000,14466.0000,0.8580,0.0028,0.0045,-0.5136,174.1600,-29.1600,-58.7800,12.6200,12.5800,5.8000,0.0000,0.0000,-0.0000,1347.0000,1017.0000,1500.0000,2000.0000
638950.1590,2.0000,2000.0000,1169.0000,2000.0000,-79.0000,-122.0000,31.0000,936.0000,-892.0000,13734.0000,0.8603,-0.0166,-0.0057,-0.5094,174.1600,-29.1600,-58.7800,12.6200,12.5800,5.8000,0.0000,0.0000,-0.0000,1347.0000,1017.0000,1500.0000,2000.0000
638967.1700,2.0000,2000.0000,1169.0000,2000.0000,-77.0000,-104.0000,28.0000,862.0000,-1095.0000,12520.0000,0.8622,-0.0354,-0.0141,-0.5052,174.4000,-28.9400,-58.6300,12.4400,12.6400,4.6600,0.0000,0.0000,-0.0000,1347.0000,1017.0000,1500.0000,2000.0000
638983.9420,2.0000,2000.0000,1169.0000,2000.0000,-79.0000,-90.0000,25.0000,775.0000,-836.0000,12068.0000,0.8633,-0.0523,-0.0206,-0.5015,174.6300,-28.7100,-58.5000,12.2300,12.6800,3.6600,0.0000,0.0000,-0.0000,1347.0000,1017.0000,1500.0000,2000.0000
639000.8000,2.0000,2000.0000,1331.0000,2000.0000,-76.0000,-75.0000,20.0000,712.0000,-791.0000,11496.0000,0.8640,-0.0683,-0.0251,-0.4982,174.8700,-28.4400,-58.3800,11.9600,12.8000,2.7400,0.0000,0.0000,-0.0000,1199.0000,1030.0000,1500.0000,2000.0000
639017.5710,2.0000,2000.0000,1331.0000,2000.0000,-75.0000,-71.0000,20.0000,688.0000,-835.0000,10929.0000,0.8643,-0.0837,-0.0283,-0.4952,175.1000,-28.1900,-58.2800,11.7100,12.8700,1.8900,0.0000,0.0000,-0.0000,1199.0000,1030.0000,1500.0000,2000.0000
639034.0750,2.0000,2000.0000,1331.0000,2000.0000,-76.0000,-69.0000,16.0000,634.0000,-608.0000,10364.0000,0.8643,-0.0980,-0.0314,-0.4923,175.3000,-27.9400,-58.1900,11.4600,12.8900,1.1200,0.0000,0.0000,-0.0000,1199.0000,1030.0000,1500.0000,2000.0000
639051.0340,2.0000,2000.0000,1331.0000,2000.0000,-84.0000,-71.0000,15.0000,739.0000,-863.0000,10044.0000,0.8638,-0.1134,-0.0344,-0.4896,175.3000,-27.9400,-58.1900,11.4600,12.8900,1.1200,0.0000,0.0000,-0.0000,1199.0000,1030.0000,1500.0000,2000.0000
639067.7200,2.0000,2000.0000,1331.0000,2000.0000,-85.0000,-80.0000,20.0000,832.0000,-971.0000,9929.0000,0.8631,-0.1295,-0.0372,-0.4868,175.4900,-27.7100,-58.1100,11.2100,12.9000,0.4500,0.0000,0.0000,-0.0000,1199.0000,1030.0000,1500.0000,2000.0000
639084.4560,2.0000,2000.0000,1331.0000,2000.0000,-87.0000,-93.0000,24.0000,933.0000,-1028.0000,9314.0000,0.8623,-0.1467,-0.0418,-0.4829,175.6800,-27.4700,-58.0300,10.9300,12.9200,-0.2100,0.0000,0.0000,-0.0000,1199.0000,1030.0000,1500.0000,2000.0000
639101.6790,2.0000,2000.0000,1388.0000,2000.0000,-89.0000,-106.0000,26.0000,894.0000,-778.0000,9438.0000,0.8612,-0.1654,-0.0474,-0.4782,175.8800,-27.2000,-57.9500,10.6100,12.9700,-0.8100,0.0000,0.0000,-0.0000,1144.0000,1032.0000,1500.0000,2000.0000
639118.5800,2.0000,2000.0000,1388.0000,2000.0000,-93.0000,-118.0000,28.0000,919.0000,-756.0000,9389.0000,0.8599,-0.1850,-0.0545,-0.4726,176.0500,-26.9400,-57.8800,10.3200,12.9600,-1.3800,0.0000,0.0000,-0.0000,1144.0000,1032.0000,1500.0000,2000.0000
639135.5900,2.0000,2000.0000,1388.0000,2000.0000,-99.0000,-128.0000,30.0000,973.0000,-720.0000,9531.0000,0.8579,-0.2064,-0.0629,-0.4662,176.2100,-26.6900,-57.8200,10.0500,12.9100,-1.9100,0.0000,0.0000,-0.0000,1144.0000,1032.0000,1500.0000,2000.0000
639152.6740,2.0000,2000.0000,1388.0000,2000.0000,-105.0000,-133.0000,29.0000,1003.0000,-613.0000,10135.0000,0.8553,-0.2288,-0.0714,-0.4594,176.3600,-26.4600,-57.7600,9.7900,12.8100,-2.4500,0.0000,0.0000,-0.0000,1144.0000,1032.0000,1500.0000,2000.0000
639169.3430,2.0000,2000.0000,1388.0000,2000.0000,-107.0000,-131.0000,29.0000,1052.0000,-696.0000,11083.0000,0.8518,-0.2513,-0.0795,-0.4528,176.3600,-26.4600,-57.7600,9.7900,12.8100,-2.4500,0.0000,0.0000,-0.0000,1144.0000,1032.0000,1500.0000,2000.0000
639185.8770,2.0000,2000.0000,1388.0000,2000.0000,-101.0000,-128.0000,28.0000,1172.0000,-724.0000,10881.0000,0.8480,-0.2729,-0.0876,-0.4458,176.5100,-26.2200,-57.7000,9.6000,12.6000,-3.0700,0.0000,0.0000,-0.0000,1144.0000,1032.0000,1500.0000,2000.0000
639202.9550,2.0000,2000.0000,1233.0000,2000.0000,-100.0000,-125.0000,28.0000,1222.0000,-585.0000,10542.0000,0.8438,-0.2942,-0.0957,-0.4385,176.6800,-25.9500,-57.6500,9.4900,12.3500,-3.6800,0.0000,0.0000,-0.0000,1292.0000,1026.0000,1500.0000,2000.0000
639219.6760,2.0000,2000.0000,1233.0000,2000.0000,-102.0000,-124.0000,29.0000,1216.0000,-610.0000,10348.0000,0.8392,-0.3150,-0.1032,-0.4312,176.8300,-25.7000,-57.6100,9.3900,12.0900,-4.2000,0.0000,0.0000,-0.0000,1292.0000,1026.0000,1500.0000,2000.0000
639236.2900,2.0000,2000.0000,1233.0000,2000.0000,-92.0000,-126.0000,28.0000,1124.0000,-607.0000,10131.0000,0.8343,-0.3353,-0.1108,-0.4234,176.9700,-25.4700,-57.5700,9.2900,11.8200,-4.6700,0.0000,0.0000,-0.0000,1292.0000,1026.0000,1500.0000,2000.0000
639253.3610,2.0000,2000.0000,1233.0000,2000.0000,-74.0000,-134.0000,25.0000,1135.0000,-617.0000,9974.0000,0.8293,-0.3542,-0.1203,-0.4151,176.9700,-25.4700,-57.5700,9.2900,11.8200,-4.6700,0.0000,0.0000,-0.0000,1292.0000,1026.0000,1500.0000,2000.0000
639270.1030,2.0000,2000.0000,1233.0000,2000.0000,-60.0000,-131.0000,24.0000,1209.0000,-601.0000,10146.0000,0.8246,-0.3708,-0.1307,-0.4068,177.1100,-25.2600,-57.5400,9.1800,11.5400,-5.1000,0.0000,0.0000,-0.0000,1292.0000,1026.0000,1500.0000,2000.0000
639286.8120,2.0000,2000.0000,1233.0000,2000.0000,-52.0000,-137.0000,22.0000,1398.0000,-784.0000,10284.0000,0.8200,-0.3859,-0.1421,-0.3982,177.2500,-25.0300,-57.5200,9.1500,11.2300,-5.5200,0.0000,0.0000,-0.0000,1292.0000,1026.0000,1500.0000,2000.0000
639303.5880,2.0000,2000.0000,1000.0000,1463.0000,-54.0000,-130.0000,25.0000,1562.0000,-719.0000,11461.0000,0.8153,-0.4005,-0.1537,-0.3889,177.4300,-24.7800,-57.5000,9.2000,10.9000,-5.9300,0.0000,0.0000,-0.0000,1974.0000,1065.0000,1500.0000,2000.0000
639320.2510,2.0000,2000.0000,1000.0000,1462.0000,-68.0000,-118.0000,26.0000,1516.0000,-942.0000,11523.0000,0.8101,-0.4152,-0.1633,-0.3803,177.6000,-24.5500,-57.5000,9.2400,10.4800,-6.3900,0.0000,0.0000,-0.0000,1974.0000,1065.0000,1500.0000,2000.0000
639336.9810,2.0000,2000.0000,1000.0000,1462.0000,-58.0000,-103.0000,27.0000,1199.0000,-991.0000,11068.0000,0.8049,-0.4295,-0.1708,-0.3722,177.7500,-24.3400,-57.5200,9.2400,10.0400,-6.8400,0.0000,0.0000,-0.0000,1974.0000,1065.0000,1500.0000,2000.0000
639353.7890,2.0000,2000.0000,1000.0000,1462.0000,-32.0000,-72.0000,24.0000,970.0000,-645.0000,10071.0000,0.8009,-0.4404,-0.1766,-0.3652,177.7500,-24.3400,-57.5200,9.2400,10.0400,-6.8400,0.0000,0.0000,-0.0000,1974.0000,1065.0000,1500.0000,2000.0000
639370.6420,2.0000,2000.0000,1000.0000,1462.0000,1.0000,-46.0000,16.0000,983.0000,-442.0000,8961.0000,0.7992,-0.4461,-0.1810,-0.3598,177.9300,-24.1200,-57.5400,9.2900,9.7000,-7.2100,0.0000,0.0000,-0.0000,1974.0000,1065.0000,1500.0000,2000.0000
639387.3100,2.0000,2000.0000,1000.0000,1462.0000,35.0000,-28.0000,4.0000,1041.0000,-324.0000,8160.0000,0.7998,-0.4462,-0.1850,-0.3564,178.1300,-23.8500,-57.5700,9.4500,9.4900,-7.4900,0.0000,0.0000,-0.0000,1974.0000,1065.0000,1500.0000,2000.0000
639403.9720,2.0000,2000.0000,1000.0000,1539.0000,56.0000,2.0000,-3.0000,1072.0000,-332.0000,7221.0000,0.8022,-0.4416,-0.1885,-0.3548,178.3200,-23.6100,-57.6100,9.5800,9.3700,-7.6900,0.0000,0.0000,-0.0000,1918.0000,1044.0000,1500.0000,2000.0000
639420.9390,2.0000,2000.0000,1000.0000,1539.0000,81.0000,6.0000,-13.0000,1021.0000,-452.0000,6055.0000,0.8060,-0.4332,-0.1919,-0.3547,178.5000,-23.3900,-57.6600,9.6800,9.3500,-7.8700,0.0000,0.0000,-0.0000,1918.0000,1044.0000,1500.0000,2000.0000
639437.6930,2.0000,2000.0000,1000.0000,1539.0000,97.0000,7.0000,-22.0000,1201.0000,-457.0000,5077.0000,0.8105,-0.4221,-0.1963,-0.3554,178.6800,-23.1800,-57.7200,9.7300,9.4200,-8.0000,0.0000,0.0000,-0.0000,1918.0000,1044.0000,1500.0000,2000.0000
639454.5050,2.0000,2000.0000,1000.0000,1539.0000,101.0000,-4.0000,-30.0000,888.0000,-597.0000,4004.0000,0.8150,-0.4097,-0.2031,-0.3560,178.6800,-23.1800,-57.7200,9.7300,9.4200,-8.0000,0.0000,0.0000,-0.0000,1918.0000,1044.0000,1500.0000,2000.0000
639471.5140,2.0000,2000.0000,1000.0000,1539.0000,109.0000,-24.0000,-36.0000,791.0000,-526.0000,2949.0000,0.8191,-0.3966,-0.2117,-0.3563,178.8700,-22.9500,-57.7900,9.8700,9.4500,-8.0700,0.0000,0.0000,-0.0000,1918.0000,1044.0000,1500.0000,2000.0000
639488.3170,2.0000,2000.0000,1000.0000,1539.0000,117.0000,-49.0000,-40.0000,817.0000,-321.0000,2580.0000,0.8224,-0.3837,-0.2241,-0.3553,179.1100,-22.7000,-57.8600,10.0900,9.4000,-8.0400,0.0000,0.0000,-0.0000,1918.0000,1044.0000,1500.0000,2000.0000
639505.3890,2.0000,2000.0000,1450.0000,2000.0000,130.0000,-69.0000,-40.0000,1069.0000,-696.0000,3284.0000,0.8249,-0.3706,-0.2399,-0.3530,179.3300,-22.4600,-57.9300,10.2800,9.3700,-7.9800,0.0000,0.0000,-0.0000,1078.0000,1028.0000,1500.0000,2000.0000
639522.0580,2.0000,2000.0000,1450.0000,2000.0000,142.0000,-87.0000,-39.0000,776.0000,-986.0000,3187.0000,0.8271,-0.3568,-0.2585,-0.3489,179.5400,-22.2400,-58.0100,10.4000,9.3200,-7.9800,0.0000,0.0000,-0.0000,1078.0000,1028.0000,1500.0000,2000.0000
639538.6590,2.0000,2000.0000,1450.0000,2000.0000,129.0000,-105.0000,-34.0000,770.0000,-821.0000,3320.0000,0.8286,-0.3434,-0.2783,-0.3436,179.7400,-22.0400,-58.0900,10.4500,9.2800,-7.9400,0.0000,0.0000,-0.0000,1078.0000,1028.0000,1500.0000,2000.0000
639555.5830,2.0000,2000.0000,1450.0000,2000.0000,86.0000,-117.0000,-23.0000,874.0000,-675.0000,3975.0000,0.8278,-0.3344,-0.2988,-0.3372,179.7400,-22.0400,-58.0900,10.4500,9.2800,-7.9400,0.0000,0.0000,-0.0000,1078.0000,1028.0000,1500.0000,2000.0000
639572.4800,2.0000,2000.0000,1450.0000,2000.0000,23.0000,-135.0000,-6.0000,1055.0000,-759.0000,5083.0000,0.8241,-0.3334,-0.3173,-0.3302,179.9700,-21.8200,-58.1700,10.6100,9.0500,-7.9500,0.0000,0.0000,-0.0000,1078.0000,1028.0000,1500.0000,2000.0000
639589.4430,2.0000,2000.0000,1450.0000,2000.0000,-30.0000,-145.0000,11.0000,1118.0000,-882.0000,6037.0000,0.8172,-0.3410,-0.3339,-0.3231,180.2300,-21.6000,-58.2600,10.8400,8.6200,-8.0200,0.0000,0.0000,-0.0000,1078.0000,1028.0000,1500.0000,2000.0000
639606.2060,2.0000,2000.0000,1000.0000,1465.0000,-64.0000,-146.0000,25.0000,1295.0000,-997.0000,6894.0000,0.8083,-0.3547,-0.3481,-0.3158,180.4800,-21.4000,-58.3500,10.9800,8.1600,-8.1500,0.0000,0.0000,-0.0000,1971.0000,1066.0000,1500.0000,2000.0000
639622.9370,2.0000,2000.0000,1000.0000,1464.0000,-77.0000,-141.0000,38.0000,1443.0000,-1001.0000,7554.0000,0.7983,-0.3713,-0.3606,-0.3079,180.7200,-21.2200,-58.4400,11.0400,7.6500,-8.3100,0.0000,0.0000,-0.0000,1971.0000,1066.0000,1500.0000,2000.0000
639639.7010,2.0000,2000.0000,1000.0000,1464.0000,-64.0000,-145.0000,43.0000,1364.0000,-1140.0000,7707.0000,0.7883,-0.3884,-0.3720,-0.2989,180.9400,-21.0700,-58.5300,11.0600,7.1300,-8.5100,0.0000,0.0000,-0.0000,1971.0000,1066.0000,1500.0000,2000.0000
639656.8610,2.0000,2000.0000,1000.0000,1464.0000,-27.0000,-151.0000,42.0000,1543.0000,-1142.0000,8069.0000,0.7790,-0.4026,-0.3852,-0.2874,180.9400,-21.0700,-58.5300,11.0600,7.1300,-8.5100,0.0000,0.0000,-0.0000,1971.0000,1066.0000,1500.0000,2000.0000
639673.9160,2.0000,2000.0000,1000.0000,1464.0000,14.0000,-152.0000,37.0000,1571.0000,-994.0000,8383.0000,0.7714,-0.4120,-0.3999,-0.2742,181.1900,-20.9100,-58.6400,11.0400,6.5700,-8.6900,0.0000,0.0000,-0.0000,1971.0000,1066.0000,1500.0000,2000.0000
639690.5940,2.0000,2000.0000,1000.0000,1464.0000,58.0000,-141.0000,31.0000,1772.0000,-1225.0000,9681.0000,0.7661,-0.4158,-0.4159,-0.2595,181.4600,-20.7400,-58.7500,11.0000,5.9300,-8.8800,0.0000,0.0000,-0.0000,1971.0000,1066.0000,1500.0000,2000.0000
639707.2890,2.0000,2000.0000,1000.0000,1933.0000,84.0000,-121.0000,24.0000,1829.0000,-866.0000,9513.0000,0.7633,-0.4143,-0.4313,-0.2443,181.7200,-20.6000,-58.8700,10.8600,5.2700,-9.1000,0.0000,0.0000,-0.0000,1547.0000,1022.0000,1500.0000,2000.0000
639724.0090,2.0000,2000.0000,1000.0000,1933.0000,92.0000,-108.0000,16.0000,1490.0000,-674.0000,8665.0000,0.7618,-0.4098,-0.4459,-0.2299,181.9500,-20.4800,-58.9900,10.7200,4.6900,-9.2700,0.0000,0.0000,-0.0000,1547.0000,1022.0000,1500.0000,2000.0000
639740.7720,2.0000,2000.0000,1000.0000,1933.0000,83.0000,-97.0000,8.0000,1154.0000,-435.0000,7118.0000,0.7606,-0.4042,-0.4592,-0.2172,182.1600,-20.3800,-59.1200,10.6000,4.2600,-9.3800,0.0000,0.0000,-0.0000,1547.0000,1022.0000,1500.0000,2000.0000
639758.0040,2.0000,2000.0000,1000.0000,1933.0000,56.0000,-103.0000,5.0000,1038.0000,-494.0000,6415.0000,0.7579,-0.4002,-0.4722,-0.2061,182.1600,-20.3800,-59.1200,10.6000,4.2600,-9.3800,0.0000,0.0000,-0.0000,1547.0000,1022.0000,1500.0000,2000.0000
639774.7340,2.0000,2000.0000,1000.0000,1933.0000,31.0000,-107.0000,4.0000,977.0000,-526.0000,5814.0000,0.7530,-0.3991,-0.4847,-0.1969,182.4100,-20.2800,-59.2700,10.5300,3.8400,-9.4200,0.0000,0.0000,-0.0000,1547.0000,1022.0000,1500.0000,2000.0000
639791.4140,2.0000,2000.0000,1000.0000,1467.0000,13.0000,-116.0000,5.0000,1278.0000,-534.0000,6231.0000,0.7464,-0.4006,-0.4968,-0.1888,182.6700,-20.1700,-59.4100,10.4600,3.4100,-9.4400,0.0000,0.0000,-0.0000,1971.0000,1064.0000,1500.0000,2000.0000
639808.2330,2.0000,2000.0000,1000.0000,1466.0000,6.0000,-123.0000,2.0000,1400.0000,-303.0000,6223.0000,0.7380,-0.4033,-0.5098,-0.1809,182.9100,-20.0800,-59.5700,10.3700,3.0100,-9.4700,0.0000,0.0000,-0.0000,1971.0000,1064.0000,1500.0000,2000.0000
639824.8150,2.0000,2000.0000,1000.0000,1466.0000,8.0000,-140.0000,-2.0000,1540.0000,-683.0000,7133.0000,0.7285,-0.4065,-0.5235,-0.1734,183.1300,-20.0100,-59.7300,10.2600,2.6300,-9.4900,0.0000,0.0000,-0.0000,1971.0000,1064.0000,1500.0000,2000.0000
639841.5770,2.0000,2000.0000,1000.0000,1466.0000,19.0000,-133.0000,-5.0000,1522.0000,-803.0000,7233.0000,0.7181,-0.4088,-0.5385,-0.1650,183.1300,-20.0100,-59.7300,10.2600,2.6300,-9.4900,0.0000,0.0000,-0.0000,1971.0000,1064.0000,1500.0000,2000.0000
639858.5500,2.0000,2000.0000,1000.0000,1466.0000,38.0000,-123.0000,-9.0000,1568.0000,-843.0000,7513.0000,0.7089,-0.4089,-0.5530,-0.1562,183.3400,-19.9400,-59.8800,10.0800,2.2600,-9.5000,0.0000,0.0000,-0.0000,1971.0000,1064.0000,1500.0000,2000.0000
639875.5780,2.0000,2000.0000,1000.0000,1466.0000,57.0000,-109.0000,-13.0000,1750.0000,-894.0000,7887.0000,0.7017,-0.4060,-0.5668,-0.1467,183.5600,-19.8800,-60.0500,9.8000,1.7100,-9.5200,0.0000,0.0000,-0.0000,1971.0000,1064.0000,1500.0000,2000.0000
639892.4830,2.0000,2000.0000,1142.0000,2000.0000,79.0000,-93.0000,-16.0000,1562.0000,-946.0000,7228.0000,0.6969,-0.4002,-0.5792,-0.1369,183.8000,-19.8300,-60.2200,9.4900,1.1000,-9.5300,0.0000,0.0000,-0.0000,1381.0000,1024.0000,1500.0000,2000.0000
639909.4230,2.0000,2000.0000,1142.0000,2000.0000,96.0000,-73.0000,-19.0000,1554.0000,-627.0000,6587.0000,0.6945,-0.3917,-0.5901,-0.1268,184.0100,-19.8000,-60.3900,9.2200,0.6200,-9.5100,0.0000,0.0000,-0.0000,1381.0000,1024.0000,1500.0000,2000.0000
639926.5830,2.0000,2000.0000,1142.0000,2000.0000,106.0000,-68.0000,-24.0000,1473.0000,-675.0000,6065.0000,0.6936,-0.3810,-0.6001,-0.1164,184.2000,-19.7700,-60.5700,9.0100,0.2400,-9.4800,0.0000,0.0000,-0.0000,1381.0000,1024.0000,1500.0000,2000.0000
639943.6660,2.0000,2000.0000,1142.0000,2000.0000,83.0000,-66.0000,-24.0000,1439.0000,-643.0000,5413.0000,0.6924,-0.3707,-0.6095,-0.1075,184.3800,-19.7600,-60.7400,8.8400,-0.0200,-9.4600,0.0000,0.0000,-0.0000,1381.0000,1024.0000,1500.0000,2000.0000
639960.5430,2.0000,2000.0000,1142.0000,2000.0000,49.0000,-80.0000,-23.0000,1573.0000,-803.0000,5108.0000,0.6890,-0.3634,-0.6189,-0.1006,184.3800,-19.7600,-60.7400,8.8400,-0.0200,-9.4600,0.0000,0.0000,-0.0000,1381.0000,1024.0000,1500.0000,2000.0000
639977.4710,2.0000,2000.0000,1142.0000,2000.0000,9.0000,-92.0000,-17.0000,1384.0000,-448.0000,4012.0000,0.6825,-0.3601,-0.6288,-0.0959,184.5800,-19.7400,-60.9300,8.6000,-0.3600,-9.4400,0.0000,0.0000,-0.0000,1381.0000,1024.0000,1500.0000,2000.0000
639994.2530,2.0000,2000.0000,1329.0000,1741.0000,-19.0000,-103.0000,-10.0000,1209.0000,-498.0000,3739.0000,0.6725,-0.3613,-0.6392,-0.0931,184.7800,-19.7400,-61.1300,8.3900,-0.7000,-9.4000,0.0000,0.0000,-0.0000,1503.0000,1412.0000,1500.0000,2000.0000
640011.1370,2.0000,2000.0000,1412.0000,1586.0000,-40.0000,-124.0000,-8.0000,1316.0000,-417.0000,4280.0000,0.6598,-0.3655,-0.6502,-0.0912,184.9600,-19.7400,-61.3200,8.2300,-0.9600,-9.3300,0.0000,0.0000,-0.0000,1503.0000,1412.0000,1500.0000,2000.0000
640028.1210,2.0000,2000.0000,1412.0000,1586.0000,-47.0000,-136.0000,-6.0000,1473.0000,-722.0000,5392.0000,0.6445,-0.3713,-0.6624,-0.0895,185.1300,-19.7400,-61.5100,8.0200,-1.2300,-9.2400,0.0000,0.0000,-0.0000,1503.0000,1412.0000,1500.0000,2000.0000
640044.9410,2.0000,2000.0000,1412.0000,1586.0000,-48.0000,-132.0000,-3.0000,1552.0000,-827.0000,5974.0000,0.6288,-0.3776,-0.6741,-0.0880,185.2900,-19.7500,-61.7000,7.7300,-1.5200,-9.1300,0.0000,0.0000,-0.0000,1503.0000,1412.0000,1500.0000,2000.0000
640062.0110,2.0000,2000.0000,1412.0000,1586.0000,-47.0000,-114.0000,0.0000,1655.0000,-751.0000,6219.0000,0.6134,-0.3839,-0.6848,-0.0865,185.2900,-19.7500,-61.7000,7.7300,-1.5200,-9.1300,0.0000,0.0000,-0.0000,1503.0000,1412.0000,1500.0000,2000.0000
640078.8510,2.0000,2000.0000,1412.0000,1586.0000,-45.0000,-108.0000,3.0000,1866.0000,-479.0000,6302.0000,0.5996,-0.3898,-0.6938,-0.0851,185.4500,-19.7700,-61.9000,7.2600,-1.9600,-9.0100,0.0000,0.0000,-0.0000,1503.0000,1412.0000,1500.0000,2000.0000
640095.6580,2.0000,2000.0000,1412.0000,1586.0000,-37.0000,-106.0000,5.0000,1946.0000,-1024.0000,6900.0000,0.5861,-0.3954,-0.7023,-0.0830,185.6100,-19.8100,-62.1000,6.7800,-2.4400,-8.8600,0.0000,0.0000,-0.0000,1503.0000,1412.0000,1500.0000,2000.0000
640112.6610,2.0000,2000.0000,1045.0000,1000.0000,-29.0000,-99.0000,6.0000,2122.0000,-1226.0000,7246.0000,0.5737,-0.4005,-0.7100,-0.0804,185.7500,-19.8500,-62.2900,6.2900,-2.8700,-8.6900,0.0000,0.0000,-0.0000,1990.0000,1536.0000,1500.0000,2000.0000
640129.4020,2.0000,2000.0000,1045.0000,1000.0000,-13.0000,-95.0000,9.0000,2015.0000,-1249.0000,6594.0000,0.5622,-0.4046,-0.7171,-0.0767,185.8600,-19.8900,-62.4800,5.8200,-3.2400,-8.5200,0.0000,0.0000,-0.0000,1990.0000,1536.0000,1500.0000,2000.0000
640146.4780,2.0000,2000.0000,1045.0000,1000.0000,24.0000,-91.0000,9.0000,1676.0000,-1201.0000,5940.0000,0.5526,-0.4067,-0.7241,-0.0702,185.9700,-19.9400,-62.6700,5.4600,-3.5100,-8.3400,0.0000,0.0000,-0.0000,1990.0000,1536.0000,1500.0000,2000.0000
640163.5270,2.0000,2000.0000,1045.0000,1000.0000,94.0000,-76.0000,7.0000,1496.0000,-1315.0000,6244.0000,0.5467,-0.4041,-0.7310,-0.0584,185.9700,-19.9400,-62.6700,5.4600,-3.5100,-8.3400,0.0000,0.0000,-0.0000,1990.0000,1536.0000,1500.0000,2000.0000
640180.3300,2.0000,2000.0000,1045.0000,1000.0000,174.0000,-41.0000,6.0000,1229.0000,-1162.0000,5872.0000,0.5482,-0.3947,-0.7362,-0.0402,186.0800,-20.0100,-62.8600,5.0200,-3.7700,-8.1400,0.0000,0.0000,-0.0000,1990.0000,1536.0000,1500.0000,2000.0000
640197.1830,2.0000,2000.0000,1045.0000,1000.0000,253.0000,1.0000,6.0000,965.0000,-604.0000,4441.0000,0.5582,-0.3782,-0.7383,-0.0155,186.1800,-20.0700,-63.0500,4.6000,-3.9700,-7.9300,0.0000,0.0000,-0.0000,1990.0000,1536.0000,1500.0000,2000.0000
640214.2290,2.0000,2000.0000,1818.0000,1850.0000,316.0000,32.0000,7.0000,828.0000,-244.0000,3010.0000,0.5764,-0.3550,-0.7359,0.0150,186.2800,-20.1400,-63.2400,4.3500,-4.0700,-7.7400,0.0000,0.0000,-0.0000,1166.0000,1483.0000,1500.0000,2000.0000
640231.2840,2.0000,2000.0000,1818.0000,1850.0000,360.0000,74.0000,7.0000,1148.0000,-97.0000,2397.0000,0.5992,-0.3267,-0.7292,0.0499,186.3600,-20.2000,-63.4200,4.2400,-4.1000,-7.6100,0.0000,0.0000,-0.0000,1166.0000,1483.0000,1500.0000,2000.0000
640248.0200,2.0000,2000.0000,1818.0000,1850.0000,352.0000,89.0000,8.0000,1215.0000,-283.0000,1050.0000,0.6240,-0.2963,-0.7181,0.0847,186.4400,-20.2600,-63.6100,4.2200,-4.0800,-7.5600,0.0000,0.0000,-0.0000,1166.0000,1483.0000,1500.0000,2000.0000
640265.0130,2.0000,2000.0000,1818.0000,1850.0000,303.0000,98.0000,8.0000,1406.0000,-67.0000,-356.0000,0.6475,-0.2672,-0.7041,0.1164,186.4400,-20.2600,-63.6100,4.2200,-4.0800,-7.5600,0.0000,0.0000,-0.0000,1166.0000,1483.0000,1500.0000,2000.0000
640281.8830,2.0000,2000.0000,1864.0000,1806.0000,212.0000,91.0000,14.0000,1314.0000,-255.0000,-1628.0000,0.6669,-0.2452,-0.6895,0.1404,186.5200,-20.3400,-63.8000,4.0600,-4.2000,-7.5800,0.0000,0.0000,-0.0000,1164.0000,1551.0000,1500.0000,2000.0000
640298.9800,2.0000,2000.0000,1885.0000,1787.0000,82.0000,95.0000,27.0000,1625.0000,-533.0000,-1990.0000,0.6812,-0.2345,-0.6762,0.1541,186.5900,-20.4200,-64.0100,3.9600,-4.3300,-7.6700,0.0000,0.0000,-0.0000,1164.0000,1551.0000,1500.0000,2000.0000
640315.9660,2.0000,2000.0000,1885.0000,1787.0000,-48.0000,81.0000,41.0000,1978.0000,-442.0000,-2134.0000,0.6893,-0.2388,-0.6661,0.1556,186.6600,-20.5000,-64.2300,3.9400,-4.4200,-7.8200,0.0000,0.0000,-0.0000,1164.0000,1551.0000,1500.0000,2000.0000
640332.7990,2.0000,2000.0000,1885.0000,1787.0000,-138.0000,80.0000,51.0000,1930.0000,-176.0000,-2504.0000,0.6926,-0.2549,-0.6583,0.1480,186.7200,-20.5800,-64.4600,3.9300,-4.5200,-8.0400,0.0000,0.0000,-0.0000,1164.0000,1551.0000,1500.0000,2000.0000
640349.9360,2.0000,2000.0000,1885.0000,1787.0000,-206.0000,68.0000,58.0000,1437.0000,113.0000,-3068.0000,0.6915,-0.2800,-0.6523,0.1337,186.7800,-20.6500,-64.7100,3.9800,-4.6000,-8.2800,0.0000,0.0000,-0.0000,1164.0000,1551.0000,1500.0000,2000.0000
640366.7030,2.0000,2000.0000,1885.0000,1787.0000,-249.0000,62.0000,60.0000,1565.0000,155.0000,-3046.0000,0.6869,-0.3097,-0.6473,0.1152,186.7800,-20.6500,-64.7100,3.9800,-4.6000,-8.2800,0.0000,0.0000,-0.0000,1164.0000,1551.0000,1500.0000,2000.0000
640383.6400,2.0000,2000.0000,1885.0000,1787.0000,-275.0000,39.0000,60.0000,1463.0000,-13.0000,-2989.0000,0.6780,-0.3424,-0.6435,0.0942,186.8300,-20.7500,-64.9800,3.8300,-4.8000,-8.5000,0.0000,0.0000,-0.0000,1164.0000,1551.0000,1500.0000,2000.0000
640400.6860,2.0000,2000.0000,1000.0000,1579.0000,-297.0000,21.0000,56.0000,1330.0000,100.0000,-2551.0000,0.6649,-0.3764,-0.6412,0.0715,186.8800,-20.8500,-65.2700,3.6400,-4.9700,-8.7700,0.0000,0.0000,-0.0000,1865.0000,1061.0000,1500.0000,2000.0000
640417.4510,2.0000,2000.0000,1000.0000,1575.0000,-311.0000,11.0000,46.0000,1407.0000,138.0000,-1864.0000,0.6482,-0.4100,-0.6399,0.0476,186.9100,-20.9500,-65.5800,3.4200,-5.1100,-8.9400,0.0000,0.0000,-0.0000,1865.0000,1061.0000,1500.0000,2000.0000
640434.1820,2.0000,2000.0000,1000.0000,1575.0000,-308.0000,3.0000,37.0000,1387.0000,35.0000,-1504.0000,0.6291,-0.4424,-0.6388,0.0227,186.9500,-21.0500,-65.8800,3.1500,-5.2400,-9.0400,0.0000,0.0000,-0.0000,1865.0000,1061.0000,1500.0000,2000.0000
640451.0740,2.0000,2000.0000,1000.0000,1575.0000,-274.0000,-10.0000,23.0000,1390.0000,-92.0000,-1361.0000,0.6092,-0.4713,-0.6378,-0.0015,186.9700,-21.1500,-66.1800,2.8800,-5.3500,-9.1100,0.0000,0.0000,-0.0000,1865.0000,1061.0000,1500.0000,2000.0000
640467.9350,2.0000,2000.0000,1000.0000,1575.0000,-228.0000,-14.0000,6.0000,1157.0000,19.0000,-1684.0000,0.5902,-0.4944,-0.6377,-0.0227,186.9700,-21.1500,-66.1800,2.8800,-5.3500,-9.1100,0.0000,0.0000,-0.0000,1865.0000,1061.0000,1500.0000,2000.0000
640484.7510,2.0000,2000.0000,1000.0000,1575.0000,-165.0000,-46.0000,-14.0000,939.0000,52.0000,-2020.0000,0.5725,-0.5105,-0.6405,-0.0385,186.9900,-21.2700,-66.5000,2.6900,-5.5400,-9.1800,0.0000,0.0000,-0.0000,1865.0000,1061.0000,1500.0000,2000.0000
640501.8360,2.0000,2000.0000,1122.0000,1000.0000,-98.0000,-69.0000,-33.0000,978.0000,236.0000,-1625.0000,0.5566,-0.5191,-0.6468,-0.0481,187.0100,-21.3900,-66.8200,2.5400,-5.7000,-9.2200,0.0000,0.0000,-0.0000,1976.0000,1599.0000,1500.0000,2000.0000
640518.5520,2.0000,2000.0000,1122.0000,1000.0000,-36.0000,-98.0000,-54.0000,1311.0000,-28.0000,-326.0000,0.5434,-0.5203,-0.6568,-0.0511,187.0200,-21.5100,-67.1200,2.4000,-5.8500,-9.1700,0.0000,0.0000,-0.0000,1976.0000,1599.0000,1500.0000,2000.0000
640535.4000,2.0000,2000.0000,1122.0000,1000.0000,9.0000,-104.0000,-69.0000,1108.0000,-98.0000,497.0000,0.5319,-0.5155,-0.6700,-0.0491,187.0300,-21.6300,-67.4200,2.1700,-6.0600,-9.0700,0.0000,0.0000,-0.0000,1976.0000,1599.0000,1500.0000,2000.0000
640552.2880,2.0000,2000.0000,1122.0000,1000.0000,59.0000,-101.0000,-79.0000,1437.0000,-306.0000,2467.0000,0.5231,-0.5060,-0.6844,-0.0433,187.0300,-21.7400,-67.6900,1.8800,-6.3000,-8.8500,0.0000,0.0000,-0.0000,1976.0000,1599.0000,1500.0000,2000.0000
640569.1160,2.0000,2000.0000,1122.0000,1000.0000,135.0000,-83.0000,-85.0000,1407.0000,-457.0000,3561.0000,0.5200,-0.4906,-0.6985,-0.0328,187.0300,-21.7400,-67.6900,1.8800,-6.3000,-8.8500,0.0000,0.0000,-0.0000,1976.0000,1599.0000,1500.0000,2000.0000
640585.9550,2.0000,2000.0000,1122.0000,1000.0000,221.0000,-46.0000,-79.0000,1626.0000,-697.0000,4710.0000,0.5255,-0.4687,-0.7099,-0.0163,187.0200,-21.8600,-67.9600,1.4800,-6.6100,-8.5800,0.0000,0.0000,-0.0000,1976.0000,1599.0000,1500.0000,2000.0000
640603.0030,2.0000,2000.0000,1977.0000,1723.0000,304.0000,-14.0000,-72.0000,1482.0000,-610.0000,4430.0000,0.5401,-0.4397,-0.7175,0.0079,187.0100,-21.9700,-68.2000,1.0200,-6.9100,-8.2600,0.0000,0.0000,-0.0000,1150.0000,1629.0000,1500.0000,2000.0000
640619.5210,2.0000,2000.0000,1977.0000,1723.0000,358.0000,10.0000,-61.0000,1386.0000,-889.0000,3550.0000,0.5607,-0.4065,-0.7204,0.0371,186.9900,-22.0700,-68.4300,0.5900,-7.1400,-7.9700,0.0000,0.0000,-0.0000,1150.0000,1629.0000,1500.0000,2000.0000
640636.1060,2.0000,2000.0000,1977.0000,1723.0000,387.0000,36.0000,-49.0000,1419.0000,-900.0000,2687.0000,0.5847,-0.3699,-0.7186,0.0705,186.9600,-22.1800,-68.6400,0.2600,-7.2400,-7.7700,0.0000,0.0000,-0.0000,1150.0000,1629.0000,1500.0000,2000.0000
640653.3410,2.0000,2000.0000,1977.0000,1723.0000,367.0000,53.0000,-35.0000,1561.0000,-784.0000,1845.0000,0.6102,-0.3321,-0.7116,0.1051,186.9300,-22.2800,-68.8500,0.0500,-7.2700,-7.6600,0.0000,0.0000,-0.0000,1150.0000,1629.0000,1500.0000,2000.0000
640670.0230,2.0000,2000.0000,1977.0000,1723.0000,303.0000,66.0000,-17.0000,1407.0000,-1006.0000,534.0000,0.6325,-0.3001,-0.7013,0.1345,186.9300,-22.2800,-68.8500,0.0500,-7.2700,-7.6600,0.0000,0.0000,-0.0000,1150.0000,1629.0000,1500.0000,2000.0000
640686.8440,2.0000,2000.0000,1977.0000,1723.0000,197.0000,72.0000,2.0000,1318.0000,-907.0000,-252.0000,0.6503,-0.2773,-0.6897,0.1564,186.9000,-22.3700,-69.0400,-0.0100,-7.2300,-7.6200,0.0000,0.0000,-0.0000,1150.0000,1629.0000,1500.0000,2000.0000
640703.5700,2.0000,2000.0000,1695.0000,1995.0000,63.0000,83.0000,25.0000,1264.0000,-889.0000,-400.0000,0.6628,-0.2681,-0.6788,0.1676,186.8700,-22.4500,-69.2400,0.0300,-7.1600,-7.6000,0.0000,0.0000,-0.0000,1155.0000,1348.0000,1500.0000,2000.0000
640720.5860,2.0000,2000.0000,1694.0000,1996.0000,-54.0000,92.0000,49.0000,1373.0000,-1074.0000,-503.0000,0.6706,-0.2742,-0.6685,0.1677,186.8400,-22.5300,-69.4200,0.1100,-7.0800,-7.6000,0.0000,0.0000,-0.0000,1155.0000,1348.0000,1500.0000,2000.0000
640737.3430,2.0000,2000.0000,1694.0000,1996.0000,-137.0000,92.0000,72.0000,1535.0000,-882.0000,-1514.0000,0.6742,-0.2920,-0.6591,0.1603,186.8200,-22.6000,-69.6000,0.2100,-7.0100,-7.6500,0.0000,0.0000,-0.0000,1155.0000,1348.0000,1500.0000,2000.0000
640754.3330,2.0000,2000.0000,1694.0000,1996.0000,-195.0000,68.0000,88.0000,1770.0000,-739.0000,-3171.0000,0.6724,-0.3184,-0.6515,0.1483,186.8000,-22.6700,-69.7800,0.4400,-6.9400,-7.7300,0.0000,0.0000,-0.0000,1155.0000,1348.0000,1500.0000,2000.0000
640771.0580,2.0000,2000.0000,1694.0000,1996.0000,-227.0000,39.0000,101.0000,1476.0000,-1030.0000,-4110.0000,0.6652,-0.3488,-0.6462,0.1351,186.8000,-22.6700,-69.7800,0.4400,-6.9400,-7.7300,0.0000,0.0000,-0.0000,1155.0000,1348.0000,1500.0000,2000.0000
640788.0700,2.0000,2000.0000,1694.0000,1996.0000,-242.0000,-7.0000,109.0000,1192.0000,-1037.0000,-4080.0000,0.6518,-0.3815,-0.6439,0.1226,186.7900,-22.7300,-69.9600,0.7800,-6.8300,-7.9200,0.0000,0.0000,-0.0000,1155.0000,1348.0000,1500.0000,2000.0000
640804.9060,2.0000,2000.0000,1049.0000,1000.0000,-254.0000,-33.0000,114.0000,1280.0000,-860.0000,-3213.0000,0.6332,-0.4144,-0.6441,0.1115,186.7900,-22.7800,-70.1400,1.0800,-6.6600,-8.1000,0.0000,0.0000,-0.0000,1990.0000,1541.0000,1500.0000,2000.0000
640821.7110,2.0000,2000.0000,1050.0000,1000.0000,-264.0000,-65.0000,113.0000,1536.0000,-595.0000,-1919.0000,0.6101,-0.4474,-0.6460,0.1011,186.7900,-22.8300,-70.3300,1.2600,-6.5500,-8.3000,0.0000,0.0000,-0.0000,1990.0000,1541.0000,1500.0000,2000.0000
640838.7260,2.0000,2000.0000,1050.0000,1000.0000,-255.0000,-80.0000,107.0000,1299.0000,-156.0000,-1109.0000,0.5833,-0.4795,-0.6492,0.0914,186.7900,-22.8700,-70.5100,1.3200,-6.5300,-8.4100,0.0000,0.0000,-0.0000,1990.0000,1541.0000,1500.0000,2000.0000
640855.4920,2.0000,2000.0000,1050.0000,1000.0000,-213.0000,-104.0000,95.0000,1289.0000,-26.0000,-371.0000,0.5561,-0.5071,-0.6531,0.0847,186.7900,-22.9100,-70.6800,1.2900,-6.5600,-8.4100,0.0000,0.0000,-0.0000,1990.0000,1541.0000,1500.0000,2000.0000
640872.2110,2.0000,2000.0000,1050.0000,1000.0000,-144.0000,-107.0000,74.0000,1265.0000,252.0000,479.0000,0.5310,-0.5280,-0.6576,0.0825,186.7900,-22.9100,-70.6800,1.2900,-6.5600,-8.4100,0.0000,0.0000,-0.0000,1990.0000,1541.0000,1500.0000,2000.0000
640889.1710,2.0000,2000.0000,1050.0000,1000.0000,-56.0000,-130.0000,45.0000,1517.0000,261.0000,1750.0000,0.5103,-0.5397,-0.6639,0.0872,186.8000,-22.9500,-70.8600,1.2100,-6.6300,-8.2700,0.0000,0.0000,-0.0000,1990.0000,1541.0000,1500.0000,2000.0000
640905.8780,2.0000,2000.0000,1000.0000,1330.0000,45.0000,-106.0000,17.0000,1474.0000,393.0000,3129.0000,0.4980,-0.5412,-0.6704,0.0984,186.8000,-22.9900,-71.0200,1.0500,-6.7700,-8.0400,0.0000,0.0000,-0.0000,1857.0000,1313.0000,1500.0000,2000.0000
640922.7770,2.0000,2000.0000,1000.0000,1330.0000,142.0000,-84.0000,0.0000,1255.0000,91.0000,3916.0000,0.4960,-0.5330,-0.6756,0.1162,186.7900,-23.0200,-71.1800,0.8000,-6.9500,-7.7200,0.0000,0.0000,-0.0000,1857.0000,1313.0000,1500.0000,2000.0000
640939.4040,2.0000,2000.0000,1000.0000,1330.0000,218.0000,-50.0000,-18.0000,1389.0000,286.0000,4074.0000,0.5040,-0.5174,-0.6776,0.1385,186.7800,-23.0600,-71.3200,0.4900,-7.1100,-7.3700,0.0000,0.0000,-0.0000,1857.0000,1313.0000,1500.0000,2000.0000
640956.2900,2.0000,2000.0000,1000.0000,1330.0000,253.0000,-38.0000,-33.0000,1217.0000,325.0000,2757.0000,0.5178,-0.4957,-0.6777,0.1638,186.7700,-23.1200,-71.4600,0.2500,-7.2500,-7.0500,0.0000,0.0000,-0.0000,1857.0000,1313.0000,1500.0000,2000.0000
640973.2010,2.0000,2000.0000,1000.0000,1330.0000,269.0000,-26.0000,-44.0000,1224.0000,235.0000,1858.0000,0.5345,-0.4706,-0.6761,0.1891,186.7700,-23.1200,-71.4600,0.2500,-7.2500,-7.0500,0.0000,0.0000,-0.0000,1857.0000,1313.0000,1500.0000,2000.0000
640989.8830,2.0000,2000.0000,1000.0000,1330.0000,279.0000,-34.0000,-55.0000,1201.0000,-23.0000,1276.0000,0.5510,-0.4434,-0.6739,0.2140,186.8000,-23.4000,-71.6800,0.3600,-7.6700,-6.8200,0.0000,0.0000,-0.0000,1857.0000,1313.0000,1500.0000,2000.0000
641006.9480,2.0000,2000.0000,1768.0000,1980.0000,289.0000,-29.0000,-61.0000,1165.0000,178.0000,1309.0000,0.5680,-0.4130,-0.6704,0.2394,186.8400,-23.6700,-71.9000,0.5100,-7.9900,-6.6400,0.0000,0.0000,-0.0000,1126.0000,1393.0000,1500.0000,2000.0000
641023.7160,2.0000,2000.0000,1768.0000,1980.0000,290.0000,-32.0000,-63.0000,1548.0000,-68.0000,1932.0000,0.5842,-0.3817,-0.6658,0.2640,186.8700,-23.9300,-72.1000,0.6300,-8.2400,-6.4600,0.0000,0.0000,-0.0000,1126.0000,1393.0000,1500.0000,2000.0000
641040.7230,2.0000,2000.0000,1768.0000,1980.0000,268.0000,-36.0000,-63.0000,1460.0000,-265.0000,1324.0000,0.5991,-0.3495,-0.6604,0.2878,186.9100,-24.1800,-72.2900,0.6900,-8.4500,-6.3100,0.0000,0.0000,-0.0000,1126.0000,1393.0000,1500.0000,2000.0000
641057.6450,2.0000,2000.0000,1768.0000,1980.0000,209.0000,-54.0000,-54.0000,1540.0000,-531.0000,1196.0000,0.6094,-0.3209,-0.6565,0.3076,186.9400,-24.4200,-72.4700,0.7600,-8.6000,-6.2000,0.0000,0.0000,-0.0000,1126.0000,1393.0000,1500.0000,2000.0000
641074.1410,2.0000,2000.0000,1768.0000,1980.0000,130.0000,-66.0000,-38.0000,1631.0000,-914.0000,1650.0000,0.6132,-0.2989,-0.6564,0.3221,186.9400,-24.4200,-72.4700,0.7600,-8.6000,-6.2000,0.0000,0.0000,-0.0000,1126.0000,1393.0000,1500.0000,2000.0000
641091.2760,2.0000,2000.0000,1048.0000,1000.0000,41.0000,-64.0000,-14.0000,1413.0000,-1066.0000,2110.0000,0.6121,-0.2854,-0.6591,0.3308,186.9800,-24.7000,-72.6400,0.6500,-8.8300,-6.1300,0.0000,0.0000,-0.0000,1991.0000,1540.0000,1500.0000,2000.0000
641108.0770,2.0000,2000.0000,1048.0000,1000.0000,-35.0000,-60.0000,10.0000,1346.0000,-1075.0000,2792.0000,0.6063,-0.2826,-0.6647,0.3327,187.0200,-24.9700,-72.8000,0.5100,-8.9800,-6.0600,0.0000,0.0000,-0.0000,1991.0000,1540.0000,1500.0000,2000.0000
641125.0720,2.0000,2000.0000,1048.0000,1000.0000,-69.0000,-63.0000,30.0000,1414.0000,-1250.0000,2890.0000,0.5971,-0.2871,-0.6719,0.3312,187.0500,-25.2200,-72.9600,0.3300,-9.0700,-5.9700,0.0000,0.0000,-0.0000,1991.0000,1540.0000,1500.0000,2000.0000
641141.9060,2.0000,2000.0000,1048.0000,1000.0000,-51.0000,-65.0000,43.0000,1465.0000,-1144.0000,2525.0000,0.5864,-0.2936,-0.6788,0.3304,187.0800,-25.4600,-73.1100,0.1400,-9.1300,-5.9100,0.0000,0.0000,-0.0000,1991.0000,1540.0000,1500.0000,2000.0000
641159.2580,2.0000,2000.0000,1048.0000,1000.0000,4.0000,-84.0000,45.0000,1283.0000,-659.0000,2288.0000,0.5756,-0.2970,-0.6845,0.3345,187.1000,-25.6900,-73.2400,0.0100,-9.2100,-5.8200,0.0000,0.0000,-0.0000,1991.0000,1540.0000,1500.0000,2000.0000
641176.0870,2.0000,2000.0000,1048.0000,1000.0000,80.0000,-84.0000,45.0000,1561.0000,-715.0000,3264.0000,0.5666,-0.2938,-0.6876,0.3462,187.1000,-25.6900,-73.2400,0.0100,-9.2100,-5.8200,0.0000,0.0000,-0.0000,1991.0000,1540.0000,1500.0000,2000.0000
641192.9030,2.0000,2000.0000,1000.0000,1326.0000,171.0000,-79.0000,46.0000,1396.0000,-901.0000,3952.0000,0.5614,-0.2837,-0.6858,0.3662,187.1200,-25.9600,-73.3800,-0.2500,-9.4000,-5.7100,0.0000,0.0000,-0.0000,1858.0000,1314.0000,1500.0000,2000.0000
641209.7270,2.0000,2000.0000,1000.0000,1328.0000,255.0000,-48.0000,49.0000,1336.0000,-1142.0000,4525.0000,0.5611,-0.2673,-0.6771,0.3940,187.1300,-26.2200,-73.5100,-0.5700,-9.5100,-5.5800,0.0000,0.0000,-0.0000,1858.0000,1314.0000,1500.0000,2000.0000
641226.5210,2.0000,2000.0000,1000.0000,1328.0000,330.0000,-25.0000,53.0000,1068.0000,-913.0000,4187.0000,0.5658,-0.2465,-0.6603,0.4278,187.1300,-26.4600,-73.6300,-0.9000,-9.5500,-5.4800,0.0000,0.0000,-0.0000,1858.0000,1314.0000,1500.0000,2000.0000
641243.5010,2.0000,2000.0000,1000.0000,1328.0000,373.0000,3.0000,55.0000,1238.0000,-735.0000,3592.0000,0.5738,-0.2215,-0.6356,0.4666,187.1300,-26.6900,-73.7500,-1.1400,-9.5500,-5.3900,0.0000,0.0000,-0.0000,1858.0000,1314.0000,1500.0000,2000.0000
641260.1890,2.0000,2000.0000,1000.0000,1328.0000,368.0000,11.0000,55.0000,1264.0000,-453.0000,2495.0000,0.5826,-0.1963,-0.6065,0.5043,187.1200,-26.9100,-73.8600,-1.2800,-9.5700,-5.3700,0.0000,0.0000,-0.0000,1858.0000,1314.0000,1500.0000,2000.0000
641277.2550,2.0000,2000.0000,1000.0000,1328.0000,351.0000,27.0000,53.0000,1317.0000,20.0000,2014.0000,0.5903,-0.1716,-0.5751,0.5397,187.1200,-26.9100,-73.8600,-1.2800,-9.5700,-5.3700,0.0000,0.0000,-0.0000,1858.0000,1314.0000,1500.0000,2000.0000
641294.1220,2.0000,2000.0000,1126.0000,1000.0000,335.0000,19.0000,49.0000,1476.0000,-181.0000,1609.0000,0.5962,-0.1480,-0.5439,0.5716,187.1100,-27.1700,-73.9700,-1.4500,-9.6200,-5.3300,0.0000,0.0000,-0.0000,1944.0000,1571.0000,1500.0000,2000.0000
641311.2130,2.0000,2000.0000,1126.0000,1000.0000,328.0000,23.0000,43.0000,1210.0000,-38.0000,640.0000,0.6009,-0.1240,-0.5121,0.6011,187.1000,-27.4100,-74.0900,-1.5700,-9.6700,-5.3200,0.0000,0.0000,-0.0000,1944.0000,1571.0000,1500.0000,2000.0000
641328.1910,2.0000,2000.0000,1126.0000,1000.0000,319.0000,27.0000,39.0000,974.0000,-172.0000,-105.0000,0.6047,-0.1005,-0.4797,0.6278,187.0800,-27.6400,-74.2100,-1.5800,-9.7300,-5.2500,0.0000,0.0000,-0.0000,1944.0000,1571.0000,1500.0000,2000.0000
641345.2340,2.0000,2000.0000,1126.0000,1000.0000,332.0000,40.0000,35.0000,945.0000,-327.0000,118.0000,0.6079,-0.0769,-0.4456,0.6527,187.0700,-27.8500,-74.3200,-1.5200,-9.7800,-5.1500,0.0000,0.0000,-0.0000,1944.0000,1571.0000,1500.0000,2000.0000
641362.3460,2.0000,2000.0000,1126.0000,1000.0000,367.0000,55.0000,34.0000,1059.0000,-456.0000,569.0000,0.6110,-0.0524,-0.4063,0.6773,187.0500,-28.0700,-74.4300,-1.5100,-9.8000,-5.1000,0.0000,0.0000,-0.0000,1944.0000,1571.0000,1500.0000,2000.0000
641379.2840,2.0000,2000.0000,1126.0000,1000.0000,401.0000,89.0000,35.0000,1113.0000,-85.0000,557.0000,0.6141,-0.0273,-0.3604,0.7016,187.0500,-28.0700,-74.4300,-1.5100,-9.8000,-5.1000,0.0000,0.0000,-0.0000,1944.0000,1571.0000,1500.0000,2000.0000
641396.3130,2.0000,2000.0000,1200.0000,1000.0000,432.0000,115.0000,36.0000,771.0000,243.0000,-859.0000,0.6164,-0.0017,-0.3068,0.7252,187.0300,-28.3100,-74.5600,-1.7400,-9.8400,-5.0900,0.0000,0.0000,-0.0000,1947.0000,1649.0000,1500.0000,2000.0000
641413.2040,2.0000,2000.0000,1201.0000,1000.0000,445.0000,135.0000,34.0000,687.0000,644.0000,-1970.0000,0.6171,0.0235,-0.2477,0.7465,187.0000,-28.5400,-74.6800,-1.9100,-9.8800,-4.9600,0.0000,0.0000,-0.0000,1947.0000,1649.0000,1500.0000,2000.0000
641429.9710,2.0000,2000.0000,1201.0000,1000.0000,447.0000,131.0000,34.0000,872.0000,345.0000,-2816.0000,0.6153,0.0477,-0.1863,0.7645,186.9700,-28.7600,-74.8000,-2.0600,-9.9400,-4.7200,0.0000,0.0000,-0.0000,1947.0000,1649.0000,1500.0000,2000.0000
641446.9500,2.0000,2000.0000,1201.0000,1000.0000,446.0000,130.0000,32.0000,756.0000,-14.0000,-4122.0000,0.6103,0.0727,-0.1231,0.7792,186.9400,-28.9700,-74.9300,-2.1800,-10.0200,-4.4400,0.0000,0.0000,-0.0000,1947.0000,1649.0000,1500.0000,2000.0000
641463.7720,2.0000,2000.0000,1201.0000,1000.0000,435.0000,113.0000,34.0000,1016.0000,20.0000,-4139.0000,0.6028,0.0968,-0.0617,0.7896,186.9000,-29.1800,-75.0600,-2.3300,-10.1100,-4.1200,0.0000,0.0000,-0.0000,1947.0000,1649.0000,1500.0000,2000.0000
641480.4610,2.0000,2000.0000,1201.0000,1000.0000,431.0000,89.0000,33.0000,1163.0000,-76.0000,-3995.0000,0.5926,0.1225,-0.0034,0.7961,186.9000,-29.1800,-75.0600,-2.3300,-10.1100,-4.1200,0.0000,0.0000,-0.0000,1947.0000,1649.0000,1500.0000,2000.0000
641497.1580,2.0000,2000.0000,1000.0000,1111.0000,425.0000,70.0000,33.0000,1161.0000,-166.0000,-3815.0000,0.5801,0.1496,0.0525,0.7990,186.8400,-29.4200,-75.2000,-2.5700,-10.2500,-3.8400,0.0000,0.0000,-0.0000,1958.0000,1421.0000,1500.0000,2000.0000
641514.2150,2.0000,2000.0000,1000.0000,1121.0000,430.0000,53.0000,34.0000,1141.0000,-215.0000,-3400.0000,0.5651,0.1792,0.1073,0.7981,186.7900,-29.6400,-75.3500,-2.8100,-10.3400,-3.5600,0.0000,0.0000,-0.0000,1958.0000,1421.0000,1500.0000,2000.0000
641531.0700,2.0000,2000.0000,1000.0000,1121.0000,422.0000,34.0000,35.0000,1056.0000,38.0000,-3347.0000,0.5481,0.2094,0.1596,0.7939,186.7300,-29.8600,-75.4900,-3.0500,-10.3700,-3.2900,0.0000,0.0000,-0.0000,1958.0000,1421.0000,1500.0000,2000.0000
641548.0580,2.0000,2000.0000,1000.0000,1121.0000,437.0000,11.0000,29.0000,744.0000,-30.0000,-3527.0000,0.5293,0.2421,0.2105,0.7854,186.6700,-30.0600,-75.6200,-3.3000,-10.3500,-3.0200,0.0000,0.0000,-0.0000,1958.0000,1421.0000,1500.0000,2000.0000
641565.0960,2.0000,2000.0000,1000.0000,1121.0000,441.0000,-4.0000,24.0000,983.0000,-73.0000,-2567.0000,0.5093,0.2767,0.2605,0.7721,186.6100,-30.2600,-75.7500,-3.5400,-10.3500,-2.7400,0.0000,0.0000,-0.0000,1958.0000,1421.0000,1500.0000,2000.0000
641581.9570,2.0000,2000.0000,1000.0000,1121.0000,444.0000,-5.0000,22.0000,1082.0000,-123.0000,-1533.0000,0.4880,0.3108,0.3086,0.7550,186.6100,-30.2600,-75.7500,-3.5400,-10.3500,-2.7400,0.0000,0.0000,-0.0000,1958.0000,1421.0000,1500.0000,2000.0000
641598.8600,2.0000,2000.0000,1485.0000,2000.0000,452.0000,-9.0000,17.0000,854.0000,107.0000,-1241.0000,0.4648,0.3441,0.3565,0.7338,186.5300,-30.5000,-75.8800,-3.7100,-10.5000,-2.5000,0.0000,0.0000,-0.0000,1045.0000,1030.0000,1500.0000,2000.0000
641615.8840,2.0000,2000.0000,1485.0000,2000.0000,455.0000,-17.0000,14.0000,888.0000,-24.0000,-808.0000,0.4397,0.3771,0.4033,0.7083,186.4500,-30.7300,-76.0000,-3.8300,-10.6000,-2.2900,0.0000,0.0000,-0.0000,1045.0000,1030.0000,1500.0000,2000.0000
641632.5270,2.0000,2000.0000,1485.0000,2000.0000,442.0000,-11.0000,12.0000,1202.0000,181.0000,216.0000,0.4137,0.4074,0.4469,0.6805,186.3800,-30.9400,-76.1100,-3.8900,-10.6800,-2.0700,0.0000,0.0000,-0.0000,1045.0000,1030.0000,1500.0000,2000.0000
641649.0950,2.0000,2000.0000,1485.0000,2000.0000,401.0000,-12.0000,11.0000,1471.0000,-87.0000,452.0000,0.3864,0.4329,0.4872,0.6526,186.3100,-31.1400,-76.2200,-3.8700,-10.7900,-1.9200,0.0000,0.0000,-0.0000,1045.0000,1030.0000,1500.0000,2000.0000
641666.1090,2.0000,2000.0000,1485.0000,2000.0000,322.0000,-11.0000,16.0000,1205.0000,47.0000,-576.0000,0.3620,0.4553,0.5203,0.6253,186.2400,-31.3600,-76.3200,-3.8800,-10.9300,-1.7500,0.0000,0.0000,-0.0000,1045.0000,1030.0000,1500.0000,2000.0000
641682.9040,2.0000,2000.0000,1485.0000,2000.0000,221.0000,-6.0000,23.0000,1274.0000,-155.0000,-861.0000,0.3428,0.4719,0.5427,0.6043,186.2400,-31.3600,-76.3200,-3.8800,-10.9300,-1.7500,0.0000,0.0000,-0.0000,1045.0000,1030.0000,1500.0000,2000.0000
641699.7520,2.0000,2000.0000,1436.0000,2000.0000,113.0000,-32.0000,33.0000,937.0000,-274.0000,-1769.0000,0.3304,0.4843,0.5545,0.5906,186.1600,-31.6200,-76.4100,-4.0000,-11.1100,-1.5500,0.0000,0.0000,-0.0000,1103.0000,1039.0000,1500.0000,2000.0000
641716.8200,2.0000,2000.0000,1436.0000,2000.0000,4.0000,-58.0000,41.0000,842.0000,-68.0000,-1777.0000,0.3268,0.4941,0.5546,0.5844,186.0800,-31.8500,-76.5000,-4.1500,-11.2200,-1.3400,0.0000,0.0000,-0.0000,1103.0000,1039.0000,1500.0000,2000.0000
641733.8800,2.0000,2000.0000,1436.0000,2000.0000,-64.0000,-87.0000,49.0000,1157.0000,-104.0000,-393.0000,0.3315,0.5029,0.5446,0.5836,186.0100,-32.0800,-76.5700,-4.2900,-11.2800,-1.1700,0.0000,0.0000,-0.0000,1103.0000,1039.0000,1500.0000,2000.0000
641751.0290,2.0000,2000.0000,1436.0000,2000.0000,-103.0000,-110.0000,46.0000,950.0000,48.0000,429.0000,0.3420,0.5113,0.5284,0.5851,185.9300,-32.2900,-76.6400,-4.3000,-11.3700,-0.9500,0.0000,0.0000,-0.0000,1103.0000,1039.0000,1500.0000,2000.0000
641768.0990,2.0000,2000.0000,1436.0000,2000.0000,-136.0000,-126.0000,40.0000,933.0000,460.0000,1649.0000,0.3569,0.5188,0.5082,0.5875,185.8500,-32.5200,-76.7000,-4.2400,-11.4800,-0.7600,0.0000,0.0000,-0.0000,1103.0000,1039.0000,1500.0000,2000.0000
641784.7120,2.0000,2000.0000,1225.0000,2000.0000,-160.0000,-150.0000,28.0000,973.0000,703.0000,2987.0000,0.3753,0.5250,0.4856,0.5897,185.8500,-32.5200,-76.7000,-4.2400,-11.4800,-0.7600,0.0000,0.0000,-0.0000,1313.0000,1029.0000,1500.0000,2000.0000
641801.6200,2.0000,2000.0000,1215.0000,2000.0000,-177.0000,-170.0000,14.0000,851.0000,566.0000,3722.0000,0.3978,0.5308,0.4603,0.5901,185.7600,-32.7900,-76.7500,-4.1100,-11.6200,-0.6000,0.0000,0.0000,-0.0000,1313.0000,1029.0000,1500.0000,2000.0000
641818.7240,2.0000,2000.0000,1215.0000,2000.0000,-175.0000,-183.0000,-2.0000,1214.0000,267.0000,5164.0000,0.4231,0.5358,0.4334,0.5883,185.6800,-33.0300,-76.7900,-3.9000,-11.7100,-0.4600,0.0000,0.0000,-0.0000,1313.0000,1029.0000,1500.0000,2000.0000
641835.5460,2.0000,2000.0000,1215.0000,2000.0000,-161.0000,-196.0000,-19.0000,1668.0000,146.0000,6972.0000,0.4488,0.5405,0.4078,0.5832,185.6100,-33.2700,-76.8200,-3.5500,-11.7900,-0.3100,0.0000,0.0000,-0.0000,1313.0000,1029.0000,1500.0000,2000.0000
641852.6640,2.0000,2000.0000,1215.0000,2000.0000,-147.0000,-202.0000,-37.0000,1667.0000,75.0000,7963.0000,0.4752,0.5454,0.3834,0.5743,185.5500,-33.4800,-76.8500,-3.0700,-11.8600,-0.1900,0.0000,0.0000,-0.0000,1313.0000,1029.0000,1500.0000,2000.0000
641869.6280,2.0000,2000.0000,1215.0000,2000.0000,-130.0000,-187.0000,-47.0000,1887.0000,-16.0000,9270.0000,0.5005,0.5494,0.3613,0.5631,185.5000,-33.7200,-76.8600,-2.5600,-11.8900,-0.0800,0.0000,0.0000,-0.0000,1313.0000,1029.0000,1500.0000,2000.0000
641886.4370,2.0000,2000.0000,1215.0000,2000.0000,-116.0000,-175.0000,-50.0000,1623.0000,-50.0000,9484.0000,0.5234,0.5522,0.3419,0.5516,185.5000,-33.7200,-76.8600,-2.5600,-11.8900,-0.0800,0.0000,0.0000,-0.0000,1313.0000,1029.0000,1500.0000,2000.0000
641903.3730,2.0000,2000.0000,1292.0000,2000.0000,-108.0000,-149.0000,-50.0000,1523.0000,-170.0000,9697.0000,0.5441,0.5539,0.3247,0.5400,185.4300,-33.9800,-76.8700,-2.0600,-11.8900,-0.0000,0.0000,0.0000,-0.0000,1229.0000,1021.0000,1500.0000,2000.0000
641920.0730,2.0000,2000.0000,1292.0000,2000.0000,-105.0000,-132.0000,-45.0000,1500.0000,-419.0000,10109.0000,0.5626,0.5535,0.3095,0.5304,185.3800,-34.2200,-76.8700,-1.6300,-11.7900,0.0500,0.0000,0.0000,-0.0000,1229.0000,1021.0000,1500.0000,2000.0000
641936.9480,2.0000,2000.0000,1292.0000,2000.0000,-104.0000,-84.0000,-40.0000,1539.0000,-590.0000,10031.0000,0.5787,0.5508,0.2963,0.5234,185.3400,-34.4500,-76.8600,-1.2000,-11.6300,0.1000,0.0000,0.0000,-0.0000,1229.0000,1021.0000,1500.0000,2000.0000
641953.9770,2.0000,2000.0000,1292.0000,2000.0000,-90.0000,-61.0000,-35.0000,1307.0000,-668.0000,9114.0000,0.5921,0.5457,0.2862,0.5193,185.3200,-34.6600,-76.8500,-0.8500,-11.4500,0.1200,0.0000,0.0000,-0.0000,1229.0000,1021.0000,1500.0000,2000.0000
641970.5470,2.0000,2000.0000,1292.0000,2000.0000,-88.0000,-27.0000,-31.0000,1444.0000,-504.0000,8197.0000,0.6029,0.5399,0.2790,0.5169,185.2800,-34.9000,-76.8400,-0.5200,-11.3400,0.1300,0.0000,0.0000,-0.0000,1229.0000,1021.0000,1500.0000,2000.0000
641987.3960,2.0000,2000.0000,1292.0000,2000.0000,-82.0000,-11.0000,-28.0000,1284.0000,-242.0000,6974.0000,0.6125,0.5322,0.2734,0.5166,185.2800,-34.9000,-76.8400,-0.5200,-11.3400,0.1300,0.0000,0.0000,-0.0000,1229.0000,1021.0000,1500.0000,2000.0000
642004.1420,2.0000,2000.0000,1458.0000,2000.0000,-77.0000,9.0000,-25.0000,1161.0000,-462.0000,5865.0000,0.6202,0.5240,0.2697,0.5177,185.2500,-35.1500,-76.8300,-0.2600,-11.3200,0.1200,0.0000,0.0000,-0.0000,1074.0000,1032.0000,1500.0000,2000.0000
642020.6860,2.0000,2000.0000,1458.0000,2000.0000,-62.0000,-2.0000,-26.0000,1177.0000,-1.0000,4880.0000,0.6267,0.5163,0.2672,0.5189,185.2200,-35.3900,-76.8200,-0.1500,-11.3100,0.1300,0.0000,0.0000,-0.0000,1074.0000,1032.0000,1500.0000,2000.0000
642037.3190,2.0000,2000.0000,1458.0000,2000.0000,-67.0000,8.0000,-26.0000,1058.0000,61.0000,4100.0000,0.6328,0.5087,0.2654,0.5199,185.1900,-35.6100,-76.8000,-0.1600,-11.3300,0.1500,0.0000,0.0000,-0.0000,1074.0000,1032.0000,1500.0000,2000.0000
642054.1320,2.0000,2000.0000,1458.0000,2000.0000,-86.0000,-15.0000,-28.0000,1266.0000,134.0000,3780.0000,0.6405,0.5005,0.2613,0.5206,185.1700,-35.8200,-76.7900,-0.2500,-11.3600,0.1800,0.0000,0.0000,-0.0000,1074.0000,1032.0000,1500.0000,2000.0000
642071.0100,2.0000,2000.0000,1458.0000,2000.0000,-106.0000,-21.0000,-28.0000,1416.0000,161.0000,3803.0000,0.6503,0.4915,0.2543,0.5204,185.1500,-36.0500,-76.7700,-0.0300,-11.4700,0.2200,0.0000,0.0000,-0.0000,1074.0000,1032.0000,1500.0000,2000.0000
642087.7520,2.0000,2000.0000,1460.0000,2000.0000,-127.0000,-46.0000,-28.0000,1211.0000,42.0000,3650.0000,0.6621,0.4819,0.2440,0.5195,185.1500,-36.0500,-76.7700,-0.0300,-11.4700,0.2200,0.0000,0.0000,-0.0000,1067.0000,1034.0000,1500.0000,2000.0000
642104.3530,2.0000,2000.0000,1467.0000,2000.0000,-143.0000,-60.0000,-29.0000,969.0000,-154.0000,3698.0000,0.6754,0.4715,0.2307,0.5180,185.1400,-36.3100,-76.7500,0.4300,-11.6100,0.2500,0.0000,0.0000,-0.0000,1067.0000,1034.0000,1500.0000,2000.0000
642121.3800,2.0000,2000.0000,1467.0000,2000.0000,-157.0000,-74.0000,-29.0000,1287.0000,-378.0000,5012.0000,0.6902,0.4604,0.2144,0.5155,185.1400,-36.5600,-76.7300,0.8400,-11.6800,0.2900,0.0000,0.0000,-0.0000,1067.0000,1034.0000,1500.0000,2000.0000
642138.4750,2.0000,2000.0000,1467.0000,2000.0000,-167.0000,-92.0000,-32.0000,945.0000,-505.0000,4884.0000,0.7058,0.4492,0.1956,0.5116,185.1400,-36.8000,-76.7000,1.2900,-11.6900,0.2900,0.0000,0.0000,-0.0000,1067.0000,1034.0000,1500.0000,2000.0000
642155.4970,2.0000,2000.0000,1467.0000,2000.0000,-167.0000,-93.0000,-33.0000,1165.0000,-448.0000,5718.0000,0.7217,0.4371,0.1756,0.5072,185.1600,-37.0100,-76.6800,1.6800,-11.6500,0.2800,0.0000,0.0000,-0.0000,1067.0000,1034.0000,1500.0000,2000.0000
642172.5080,2.0000,2000.0000,1467.0000,2000.0000,-167.0000,-100.0000,-34.0000,1122.0000,-394.0000,5986.0000,0.7373,0.4253,0.1548,0.5015,185.2000,-37.2600,-76.6500,2.3500,-11.6200,0.2200,0.0000,0.0000,-0.0000,1067.0000,1034.0000,1500.0000,2000.0000
642189.2200,2.0000,2000.0000,1467.0000,2000.0000,-166.0000,-94.0000,-32.0000,1334.0000,-516.0000,6832.0000,0.7521,0.4138,0.1338,0.4952,185.2000,-37.2600,-76.6500,2.3500,-11.6200,0.2200,0.0000,0.0000,-0.0000,1067.0000,1034.0000,1500.0000,2000.0000
642206.2130,2.0000,2000.0000,1314.0000,2000.0000,-163.0000,-97.0000,-31.0000,1346.0000,-701.0000,7398.0000,0.7660,0.4014,0.1133,0.4892,185.2700,-37.5200,-76.6100,3.1700,-11.5700,0.1100,0.0000,0.0000,-0.0000,1221.0000,1035.0000,1500.0000,2000.0000
642222.6850,2.0000,2000.0000,1314.0000,2000.0000,-155.0000,-89.0000,-29.0000,1274.0000,-667.0000,7337.0000,0.7785,0.3897,0.0937,0.4830,185.3500,-37.7700,-76.5800,3.9100,-11.4700,-0.0500,0.0000,0.0000,-0.0000,1221.0000,1035.0000,1500.0000,2000.0000
642239.5580,2.0000,2000.0000,1314.0000,2000.0000,-140.0000,-91.0000,-27.0000,1189.0000,-589.0000,6794.0000,0.7899,0.3784,0.0749,0.4768,185.4400,-38.0000,-76.5400,4.5300,-11.3400,-0.2400,0.0000,0.0000,-0.0000,1221.0000,1035.0000,1500.0000,2000.0000
642256.5320,2.0000,2000.0000,1314.0000,2000.0000,-123.0000,-105.0000,-26.0000,910.0000,-380.0000,6058.0000,0.7999,0.3695,0.0557,0.4696,185.5400,-38.2100,-76.5100,4.9900,-11.2300,-0.4100,0.0000,0.0000,-0.0000,1221.0000,1035.0000,1500.0000,2000.0000
642273.1630,2.0000,2000.0000,1314.0000,2000.0000,-116.0000,-112.0000,-25.0000,936.0000,-676.0000,6853.0000,0.8086,0.3626,0.0366,0.4619,185.5400,-38.2100,-76.5100,4.9900,-11.2300,-0.4100,0.0000,0.0000,-0.0000,1221.0000,1035.0000,1500.0000,2000.0000
642289.9630,2.0000,2000.0000,1272.0000,2000.0000,-109.0000,-122.0000,-23.0000,1085.0000,-713.0000,7507.0000,0.8165,0.3571,0.0163,0.4534,185.6500,-38.4600,-76.4700,5.3600,-11.1300,-0.5900,0.0000,0.0000,-0.0000,1256.0000,1028.0000,1500.0000,2000.0000
642306.9660,2.0000,2000.0000,1271.0000,2000.0000,-103.0000,-118.0000,-18.0000,1320.0000,-626.0000,8073.0000,0.8234,0.3521,-0.0041,0.4451,185.7800,-38.7200,-76.4400,5.6900,-10.9900,-0.8200,0.0000,0.0000,-0.0000,1256.0000,1028.0000,1500.0000,2000.0000
642323.7770,2.0000,2000.0000,1271.0000,2000.0000,-95.0000,-118.0000,-15.0000,1484.0000,-836.0000,8810.0000,0.8291,0.3480,-0.0244,0.4368,185.9100,-38.9500,-76.4000,5.9700,-10.8200,-1.1100,0.0000,0.0000,-0.0000,1256.0000,1028.0000,1500.0000,2000.0000
642340.5680,2.0000,2000.0000,1271.0000,2000.0000,-84.0000,-114.0000,-11.0000,1520.0000,-870.0000,9123.0000,0.8337,0.3444,-0.0434,0.4295,186.0300,-39.1700,-76.3700,6.2200,-10.6000,-1.4700,0.0000,0.0000,-0.0000,1256.0000,1028.0000,1500.0000,2000.0000
642357.9370,2.0000,2000.0000,1271.0000,2000.0000,-80.0000,-118.0000,-7.0000,1326.0000,-920.0000,8986.0000,0.8375,0.3417,-0.0632,0.4217,186.1500,-39.3700,-76.3500,6.4100,-10.3500,-1.8500,0.0000,0.0000,-0.0000,1256.0000,1028.0000,1500.0000,2000.0000
642374.5180,2.0000,2000.0000,1271.0000,2000.0000,-78.0000,-117.0000,-3.0000,1227.0000,-837.0000,8853.0000,0.8404,0.3391,-0.0816,0.4149,186.1500,-39.3700,-76.3500,6.4100,-10.3500,-1.8500,0.0000,0.0000,-0.0000,1256.0000,1028.0000,1500.0000,2000.0000
642391.1870,2.0000,2000.0000,1271.0000,2000.0000,-75.0000,-110.0000,-1.0000,1372.0000,-799.0000,8960.0000,0.8426,0.3368,-0.1002,0.4081,186.3000,-39.6100,-76.3300,6.6900,-10.1400,-2.2100,0.0000,0.0000,-0.0000,1256.0000,1028.0000,1500.0000,2000.0000
642407.9910,2.0000,2000.0000,1462.0000,2000.0000,-75.0000,-110.0000,2.0000,1479.0000,-829.0000,9091.0000,0.8444,0.3340,-0.1179,0.4020,186.4600,-39.8400,-76.3100,6.9800,-9.9300,-2.5800,0.0000,0.0000,-0.0000,1066.0000,1028.0000,1500.0000,2000.0000
642424.8270,2.0000,2000.0000,1462.0000,2000.0000,-79.0000,-105.0000,4.0000,1415.0000,-758.0000,8998.0000,0.8457,0.3311,-0.1360,0.3959,186.6100,-40.0700,-76.2900,7.1900,-9.7200,-2.9800,0.0000,0.0000,-0.0000,1066.0000,1028.0000,1500.0000,2000.0000
642441.3650,2.0000,2000.0000,1462.0000,2000.0000,-90.0000,-90.0000,9.0000,1602.0000,-590.0000,9379.0000,0.8471,0.3263,-0.1532,0.3905,186.7600,-40.2600,-76.2900,7.3300,-9.5200,-3.3700,0.0000,0.0000,-0.0000,1066.0000,1028.0000,1500.0000,2000.0000
642458.3330,2.0000,2000.0000,1462.0000,2000.0000,-109.0000,-79.0000,12.0000,1640.0000,-442.0000,9340.0000,0.8490,0.3184,-0.1701,0.3858,186.9000,-40.4500,-76.2900,7.4000,-9.3200,-3.8100,0.0000,0.0000,-0.0000,1066.0000,1028.0000,1500.0000,2000.0000
642474.7860,2.0000,2000.0000,1462.0000,2000.0000,-125.0000,-75.0000,13.0000,1378.0000,-458.0000,8858.0000,0.8517,0.3079,-0.1865,0.3809,186.9000,-40.4500,-76.2900,7.4000,-9.3200,-3.8100,0.0000,0.0000,-0.0000,1066.0000,1028.0000,1500.0000,2000.0000
642491.6390,2.0000,2000.0000,1462.0000,2000.0000,-137.0000,-65.0000,14.0000,1271.0000,-452.0000,8487.0000,0.8547,0.2949,-0.2032,0.3757,187.0800,-40.6600,-76.3000,7.7200,-9.0600,-4.2400,0.0000,0.0000,-0.0000,1066.0000,1028.0000,1500.0000,2000.0000
642508.6570,2.0000,2000.0000,1279.0000,2000.0000,-145.0000,-54.0000,12.0000,1496.0000,-86.0000,8121.0000,0.8581,0.2798,-0.2191,0.3705,187.2800,-40.8600,-76.3300,8.0700,-8.8100,-4.6300,0.0000,0.0000,-0.0000,1260.0000,1040.0000,1500.0000,2000.0000
642525.7220,2.0000,2000.0000,1279.0000,2000.0000,-148.0000,-54.0000,10.0000,1572.0000,-358.0000,8150.0000,0.8616,0.2634,-0.2345,0.3650,187.4700,-41.0500,-76.3600,8.3100,-8.6400,-5.0200,0.0000,0.0000,-0.0000,1260.0000,1040.0000,1500.0000,2000.0000
642542.7250,2.0000,2000.0000,1279.0000,2000.0000,-133.0000,-68.0000,3.0000,1355.0000,-400.0000,7276.0000,0.8644,0.2482,-0.2498,0.3588,187.6500,-41.2300,-76.4000,8.4900,-8.5100,-5.4000,0.0000,0.0000,-0.0000,1260.0000,1040.0000,1500.0000,2000.0000
642559.7510,2.0000,2000.0000,1279.0000,2000.0000,-119.0000,-83.0000,-4.0000,1339.0000,-332.0000,7103.0000,0.8659,0.2362,-0.2662,0.3514,187.8300,-41.3900,-76.4400,8.6100,-8.4200,-5.7300,0.0000,0.0000,-0.0000,1260.0000,1040.0000,1500.0000,2000.0000
642576.4470,2.0000,2000.0000,1279.0000,2000.0000,-112.0000,-97.0000,-11.0000,1250.0000,-365.0000,7258.0000,0.8665,0.2267,-0.2834,0.3428,187.8300,-41.3900,-76.4400,8.6100,-8.4200,-5.7300,0.0000,0.0000,-0.0000,1260.0000,1040.0000,1500.0000,2000.0000
642593.1920,2.0000,2000.0000,1000.0000,1934.0000,-106.0000,-95.0000,-11.0000,1371.0000,-517.0000,7851.0000,0.8664,0.2183,-0.3009,0.3334,188.0600,-41.5700,-76.5000,8.9700,-8.1900,-6.0600,0.0000,0.0000,-0.0000,1547.0000,1022.0000,1500.0000,2000.0000
642610.3290,2.0000,2000.0000,1000.0000,1933.0000,-94.0000,-114.0000,-17.0000,1706.0000,-915.0000,9016.0000,0.8657,0.2106,-0.3186,0.3236,188.3100,-41.7500,-76.5600,9.3500,-7.9000,-6.4000,0.0000,0.0000,-0.0000,1547.0000,1022.0000,1500.0000,2000.0000
642627.1450,2.0000,2000.0000,1000.0000,1933.0000,-74.0000,-114.0000,-19.0000,1527.0000,-880.0000,8665.0000,0.8636,0.2059,-0.3366,0.3138,188.5400,-41.9100,-76.6300,9.6200,-7.5700,-6.8100,0.0000,0.0000,-0.0000,1547.0000,1022.0000,1500.0000,2000.0000
642644.1450,2.0000,2000.0000,1000.0000,1933.0000,-54.0000,-131.0000,-26.0000,1242.0000,-600.0000,7852.0000,0.8604,0.2045,-0.3542,0.3040,188.7600,-42.0500,-76.7100,9.8000,-7.2800,-7.1700,0.0000,0.0000,-0.0000,1547.0000,1022.0000,1500.0000,2000.0000
642661.3120,2.0000,2000.0000,1000.0000,1933.0000,-36.0000,-129.0000,-29.0000,1239.0000,-645.0000,8165.0000,0.8559,0.2060,-0.3722,0.2940,189.0500,-42.2100,-76.8000,10.1000,-6.9500,-7.4700,0.0000,0.0000,-0.0000,1547.0000,1022.0000,1500.0000,2000.0000
642678.2960,2.0000,2000.0000,1000.0000,1933.0000,-28.0000,-129.0000,-29.0000,1270.0000,-754.0000,8545.0000,0.8508,0.2091,-0.3892,0.2844,189.0500,-42.2100,-76.8000,10.1000,-6.9500,-7.4700,0.0000,0.0000,-0.0000,1547.0000,1022.0000,1500.0000,2000.0000
642695.6960,2.0000,2000.0000,1389.0000,2000.0000,-21.0000,-121.0000,-30.0000,1200.0000,-813.0000,8817.0000,0.8452,0.2133,-0.4058,0.2748,189.3500,-42.3700,-76.8900,10.3800,-6.5800,-7.7600,0.0000,0.0000,-0.0000,1136.0000,1025.0000,1500.0000,2000.0000
642712.5220,2.0000,2000.0000,1389.0000,2000.0000,-25.0000,-113.0000,-25.0000,1009.0000,-725.0000,8461.0000,0.8400,0.2167,-0.4203,0.2661,189.6300,-42.5100,-76.9900,10.5500,-6.2200,-8.0500,0.0000,0.0000,-0.0000,1136.0000,1025.0000,1500.0000,2000.0000
642729.2260,2.0000,2000.0000,1389.0000,2000.0000,-42.0000,-86.0000,-18.0000,1110.0000,-782.0000,8703.0000,0.8356,0.2178,-0.4331,0.2583,189.9000,-42.6300,-77.0900,10.6700,-5.9000,-8.3000,0.0000,0.0000,-0.0000,1136.0000,1025.0000,1500.0000,2000.0000
642746.0090,2.0000,2000.0000,1389.0000,2000.0000,-65.0000,-61.0000,-11.0000,1161.0000,-804.0000,8387.0000,0.8331,0.2150,-0.4435,0.2508,190.1500,-42.7400,-77.1900,10.7200,-5.6000,-8.5600,0.0000,0.0000,-0.0000,1136.0000,1025.0000,1500.0000,2000.0000
642763.1430,2.0000,2000.0000,1389.0000,2000.0000,-74.0000,-39.0000,-2.0000,1376.0000,-803.0000,8060.0000,0.8322,0.2086,-0.4522,0.2438,190.4500,-42.8600,-77.3000,10.7900,-5.2400,-8.8000,0.0000,0.0000,-0.0000,1136.0000,1025.0000,1500.0000,2000.0000
642779.7500,2.0000,2000.0000,1389.0000,2000.0000,-79.0000,-31.0000,2.0000,1172.0000,-784.0000,7010.0000,0.8318,0.2008,-0.4597,0.2375,190.4500,-42.8600,-77.3000,10.7900,-5.2400,-8.8000,0.0000,0.0000,-0.0000,1136.0000,1025.0000,1500.0000,2000.0000
642796.6010,2.0000,2000.0000,1000.0000,1382.0000,-82.0000,-27.0000,5.0000,1318.0000,-674.0000,6627.0000,0.8320,0.1917,-0.4663,0.2316,190.7600,-42.9700,-77.4300,10.8700,-4.9400,-9.0500,0.0000,0.0000,-0.0000,1980.0000,1140.0000,1500.0000,2000.0000
642813.3940,2.0000,2000.0000,1000.0000,1381.0000,-84.0000,-27.0000,8.0000,1360.0000,-380.0000,5686.0000,0.8321,0.1822,-0.4725,0.2262,191.0500,-43.0700,-77.5600,10.9400,-4.7200,-9.2500,0.0000,0.0000,-0.0000,1980.0000,1140.0000,1500.0000,2000.0000
642830.1990,2.0000,2000.0000,1000.0000,1381.0000,-74.0000,-38.0000,10.0000,1389.0000,-600.0000,5393.0000,0.8318,0.1729,-0.4789,0.2211,191.3300,-43.1600,-77.6900,11.0200,-4.6100,-9.4000,0.0000,0.0000,-0.0000,1980.0000,1140.0000,1500.0000,2000.0000
642847.2570,2.0000,2000.0000,1000.0000,1381.0000,-47.0000,-54.0000,4.0000,1368.0000,-1068.0000,5739.0000,0.8298,0.1663,-0.4866,0.2166,191.5800,-43.2500,-77.8200,11.1000,-4.5200,-9.5300,0.0000,0.0000,-0.0000,1980.0000,1140.0000,1500.0000,2000.0000
642864.1990,2.0000,2000.0000,1000.0000,1381.0000,-8.0000,-60.0000,-4.0000,1385.0000,-878.0000,5559.0000,0.8263,0.1646,-0.4948,0.2130,191.8800,-43.3300,-77.9700,11.0900,-4.2300,-9.6700,0.0000,0.0000,-0.0000,1980.0000,1140.0000,1500.0000,2000.0000
642880.7860,2.0000,2000.0000,1000.0000,1381.0000,42.0000,-69.0000,-15.0000,1402.0000,-787.0000,5604.0000,0.8215,0.1692,-0.5018,0.2115,191.8800,-43.3300,-77.9700,11.0900,-4.2300,-9.6700,0.0000,0.0000,-0.0000,1980.0000,1140.0000,1500.0000,2000.0000
642897.4630,2.0000,2000.0000,1549.0000,1883.0000,89.0000,-69.0000,-25.0000,1293.0000,-584.0000,5339.0000,0.8153,0.1808,-0.5076,0.2121,192.1900,-43.4200,-78.1200,11.0300,-3.9400,-9.8000,0.0000,0.0000,-0.0000,1282.0000,1332.0000,1500.0000,2000.0000
642914.1440,2.0000,2000.0000,1550.0000,1884.0000,131.0000,-63.0000,-33.0000,1243.0000,-455.0000,5195.0000,0.8083,0.1981,-0.5110,0.2151,192.4700,-43.4900,-78.2800,10.9600,-3.6800,-9.9000,0.0000,0.0000,-0.0000,1282.0000,1332.0000,1500.0000,2000.0000
642930.8810,2.0000,2000.0000,1550.0000,1884.0000,149.0000,-50.0000,-37.0000,1223.0000,-380.0000,4809.0000,0.8007,0.2194,-0.5122,0.2199,192.7400,-43.5600,-78.4300,10.9000,-3.4600,-9.9600,0.0000,0.0000,-0.0000,1282.0000,1332.0000,1500.0000,2000.0000
642947.5820,2.0000,2000.0000,1550.0000,1884.0000,119.0000,-55.0000,-36.0000,1213.0000,-423.0000,4467.0000,0.7934,0.2397,-0.5127,0.2240,192.9800,-43.6100,-78.5800,10.8500,-3.2600,-10.0100,0.0000,0.0000,-0.0000,1282.0000,1332.0000,1500.0000,2000.0000
642964.5610,2.0000,2000.0000,1550.0000,1884.0000,55.0000,-65.0000,-30.0000,1371.0000,-176.0000,4045.0000,0.7869,0.2545,-0.5153,0.2247,193.2700,-43.6700,-78.7500,10.7800,-2.9800,-10.0400,0.0000,0.0000,-0.0000,1282.0000,1332.0000,1500.0000,2000.0000
642981.5920,2.0000,2000.0000,1550.0000,1884.0000,-9.0000,-75.0000,-19.0000,1165.0000,-577.0000,4068.0000,0.7812,0.2615,-0.5221,0.2208,193.2700,-43.6700,-78.7500,10.7800,-2.9800,-10.0400,0.0000,0.0000,-0.0000,1282.0000,1332.0000,1500.0000,2000.0000
642998.2510,2.0000,2000.0000,1895.0000,1855.0000,-63.0000,-72.0000,-9.0000,1292.0000,-819.0000,4919.0000,0.7772,0.2608,-0.5312,0.2137,193.5500,-43.7200,-78.9100,10.7100,-2.6900,-10.0700,0.0000,0.0000,-0.0000,1125.0000,1523.0000,1500.0000,2000.0000
643015.0730,2.0000,2000.0000,1896.0000,1854.0000,-102.0000,-74.0000,-1.0000,1439.0000,-738.0000,5551.0000,0.7750,0.2539,-0.5416,0.2040,193.8100,-43.7600,-79.0700,10.6000,-2.3600,-10.0900,0.0000,0.0000,-0.0000,1125.0000,1523.0000,1500.0000,2000.0000
643031.9960,2.0000,2000.0000,1896.0000,1854.0000,-140.0000,-67.0000,4.0000,1392.0000,-774.0000,5874.0000,0.7735,0.2423,-0.5533,0.1921,194.0600,-43.7900,-79.2400,10.4200,-2.0300,-10.1400,0.0000,0.0000,-0.0000,1125.0000,1523.0000,1500.0000,2000.0000
643049.0710,2.0000,2000.0000,1896.0000,1854.0000,-184.0000,-42.0000,9.0000,1371.0000,-537.0000,6126.0000,0.7742,0.2249,-0.5642,0.1779,194.2800,-43.8200,-79.4000,10.2000,-1.7300,-10.2000,0.0000,0.0000,-0.0000,1125.0000,1523.0000,1500.0000,2000.0000
643066.0950,2.0000,2000.0000,1896.0000,1854.0000,-237.0000,-11.0000,13.0000,1501.0000,-335.0000,6460.0000,0.7783,0.2006,-0.5728,0.1607,194.5400,-43.8400,-79.5700,9.8700,-1.4200,-10.3000,0.0000,0.0000,-0.0000,1125.0000,1523.0000,1500.0000,2000.0000
643083.2080,2.0000,2000.0000,1896.0000,1854.0000,-278.0000,22.0000,16.0000,1405.0000,-783.0000,6320.0000,0.7855,0.1692,-0.5784,0.1405,194.5400,-43.8400,-79.5700,9.8700,-1.4200,-10.3000,0.0000,0.0000,-0.0000,1125.0000,1523.0000,1500.0000,2000.0000
643100.1500,2.0000,2000.0000,1061.0000,1000.0000,-320.0000,61.0000,18.0000,1200.0000,-614.0000,4969.0000,0.7955,0.1318,-0.5796,0.1178,194.7900,-43.8600,-79.7600,9.5000,-1.1500,-10.4000,0.0000,0.0000,-0.0000,1990.0000,1552.0000,1500.0000,2000.0000
643116.9370,2.0000,2000.0000,1061.0000,1000.0000,-343.0000,77.0000,20.0000,1330.0000,-76.0000,3837.0000,0.8066,0.0901,-0.5766,0.0934,195.0200,-43.8700,-79.9400,9.2300,-0.9800,-10.4700,0.0000,0.0000,-0.0000,1990.0000,1552.0000,1500.0000,2000.0000
643133.6410,2.0000,2000.0000,1061.0000,1000.0000,-347.0000,100.0000,20.0000,1191.0000,-207.0000,2259.0000,0.8172,0.0466,-0.5703,0.0682,195.2200,-43.8800,-80.1200,9.0800,-0.9800,-10.5400,0.0000,0.0000,-0.0000,1990.0000,1552.0000,1500.0000,2000.0000
643150.6430,2.0000,2000.0000,1061.0000,1000.0000,-313.0000,107.0000,18.0000,1272.0000,-203.0000,876.0000,0.8269,0.0042,-0.5607,0.0439,195.4200,-43.8900,-80.3100,9.0900,-1.0300,-10.5500,0.0000,0.0000,-0.0000,1990.0000,1552.0000,1500.0000,2000.0000
643167.7370,2.0000,2000.0000,1061.0000,1000.0000,-241.0000,114.0000,10.0000,1609.0000,-9.0000,-242.0000,0.8353,-0.0318,-0.5485,0.0224,195.6500,-43.9000,-80.5100,9.1500,-0.9200,-10.5800,0.0000,0.0000,-0.0000,1990.0000,1552.0000,1500.0000,2000.0000
643184.4560,2.0000,2000.0000,1061.0000,1000.0000,-128.0000,96.0000,-4.0000,1430.0000,2.0000,-1253.0000,0.8423,-0.0549,-0.5362,0.0075,195.6500,-43.9000,-80.5100,9.1500,-0.9200,-10.5800,0.0000,0.0000,-0.0000,1990.0000,1552.0000,1500.0000,2000.0000
643201.2240,2.0000,2000.0000,1000.0000,1688.0000,15.0000,100.0000,-22.0000,1094.0000,67.0000,-1795.0000,0.8495,-0.0612,-0.5241,0.0007,195.8800,-43.9000,-80.7200,9.3100,-0.8000,-10.5800,0.0000,0.0000,-0.0000,1773.0000,1039.0000,1500.0000,2000.0000
643218.1230,2.0000,2000.0000,1000.0000,1689.0000,145.0000,95.0000,-39.0000,1079.0000,-9.0000,-1637.0000,0.8575,-0.0483,-0.5122,0.0024,196.0900,-43.9100,-80.9400,9.4900,-0.7000,-10.5200,0.0000,0.0000,-0.0000,1773.0000,1039.0000,1500.0000,2000.0000
643234.7790,2.0000,2000.0000,1000.0000,1689.0000,230.0000,102.0000,-51.0000,1163.0000,-133.0000,-1951.0000,0.8660,-0.0210,-0.4996,0.0107,196.3000,-43.9100,-81.1500,9.6200,-0.6000,-10.4800,0.0000,0.0000,-0.0000,1773.0000,1039.0000,1500.0000,2000.0000
643251.7600,2.0000,2000.0000,1000.0000,1689.0000,287.0000,91.0000,-60.0000,1141.0000,5.0000,-3142.0000,0.8733,0.0174,-0.4863,0.0230,196.4900,-43.9100,-81.3700,9.7800,-0.5200,-10.4100,0.0000,0.0000,-0.0000,1773.0000,1039.0000,1500.0000,2000.0000
643268.6840,2.0000,2000.0000,1000.0000,1689.0000,283.0000,50.0000,-70.0000,962.0000,49.0000,-4631.0000,0.8772,0.0589,-0.4752,0.0353,196.7200,-43.9000,-81.6200,9.9000,-0.4200,-10.3200,0.0000,0.0000,-0.0000,1773.0000,1039.0000,1500.0000,2000.0000
643285.6020,2.0000,2000.0000,1000.0000,1689.0000,240.0000,3.0000,-71.0000,710.0000,127.0000,-5215.0000,0.8766,0.0974,-0.4691,0.0445,196.7200,-43.9000,-81.6200,9.9000,-0.4200,-10.3200,0.0000,0.0000,-0.0000,1773.0000,1039.0000,1500.0000,2000.0000
643302.4170,2.0000,2000.0000,1447.0000,2000.0000,196.0000,-48.0000,-71.0000,791.0000,-47.0000,-4190.0000,0.8720,0.1302,-0.4693,0.0497,196.9400,-43.8900,-81.8700,10.0700,-0.3900,-10.1400,0.0000,0.0000,-0.0000,1095.0000,1043.0000,1500.0000,2000.0000
643319.3020,2.0000,2000.0000,1448.0000,2000.0000,166.0000,-93.0000,-67.0000,866.0000,-390.0000,-2661.0000,0.8637,0.1582,-0.4758,0.0515,197.1500,-43.8800,-82.1200,10.1500,-0.3700,-9.9800,0.0000,0.0000,-0.0000,1095.0000,1043.0000,1500.0000,2000.0000
643336.2680,2.0000,2000.0000,1448.0000,2000.0000,136.0000,-141.0000,-59.0000,1171.0000,-1106.0000,-771.0000,0.8520,0.1827,-0.4879,0.0509,197.3500,-43.8700,-82.3700,10.0900,-0.2800,-9.7900,0.0000,0.0000,-0.0000,1095.0000,1043.0000,1500.0000,2000.0000
643353.1990,2.0000,2000.0000,1448.0000,2000.0000,81.0000,-164.0000,-41.0000,1351.0000,-1065.0000,1599.0000,0.8382,0.2009,-0.5047,0.0478,197.5400,-43.8600,-82.6200,9.8900,-0.0800,-9.6400,0.0000,0.0000,-0.0000,1095.0000,1043.0000,1500.0000,2000.0000
643370.0750,2.0000,2000.0000,1448.0000,2000.0000,37.0000,-176.0000,-21.0000,1671.0000,-1365.0000,3993.0000,0.8236,0.2115,-0.5245,0.0432,197.7500,-43.8400,-82.8600,9.7000,0.2000,-9.5600,0.0000,0.0000,-0.0000,1095.0000,1043.0000,1500.0000,2000.0000
643386.7080,2.0000,2000.0000,1448.0000,2000.0000,3.0000,-182.0000,0.0000,1789.0000,-1496.0000,5289.0000,0.8092,0.2158,-0.5451,0.0380,197.7500,-43.8400,-82.8600,9.7000,0.2000,-9.5600,0.0000,0.0000,-0.0000,1095.0000,1043.0000,1500.0000,2000.0000
643403.4210,2.0000,2000.0000,1812.0000,1790.0000,-26.0000,-176.0000,19.0000,1954.0000,-1347.0000,6209.0000,0.7950,0.2148,-0.5664,0.0328,197.9600,-43.8100,-83.0800,9.3500,0.5600,-9.5200,0.0000,0.0000,-0.0000,1199.0000,1514.0000,1500.0000,2000.0000
643420.3530,2.0000,2000.0000,1813.0000,1789.0000,-46.0000,-174.0000,35.0000,2040.0000,-1188.0000,6992.0000,0.7811,0.2094,-0.5876,0.0277,198.1300,-43.7800,-83.2900,8.9200,0.9100,-9.5000,0.0000,0.0000,-0.0000,1199.0000,1514.0000,1500.0000,2000.0000
643437.3290,2.0000,2000.0000,1813.0000,1789.0000,-65.0000,-156.0000,49.0000,2166.0000,-1240.0000,7891.0000,0.7680,0.2002,-0.6079,0.0229,198.2900,-43.7400,-83.4900,8.4300,1.2300,-9.5200,0.0000,0.0000,-0.0000,1199.0000,1514.0000,1500.0000,2000.0000
643454.2900,2.0000,2000.0000,1813.0000,1789.0000,-97.0000,-124.0000,58.0000,2163.0000,-1043.0000,8646.0000,0.7573,0.1871,-0.6254,0.0181,198.4300,-43.7000,-83.6800,7.9000,1.5200,-9.5500,0.0000,0.0000,-0.0000,1199.0000,1514.0000,1500.0000,2000.0000
643471.2210,2.0000,2000.0000,1813.0000,1789.0000,-136.0000,-83.0000,66.0000,2276.0000,-1026.0000,9118.0000,0.7506,0.1691,-0.6386,0.0120,198.6200,-43.6500,-83.8800,7.5500,1.8100,-9.6100,0.0000,0.0000,-0.0000,1199.0000,1514.0000,1500.0000,2000.0000
643488.2790,2.0000,2000.0000,1043.0000,1000.0000,-178.0000,-48.0000,73.0000,1865.0000,-783.0000,8105.0000,0.7479,0.1456,-0.6476,0.0037,198.6200,-43.6500,-83.8800,7.5500,1.8100,-9.6100,0.0000,0.0000,-0.0000,1984.0000,1528.0000,1500.0000,2000.0000
643505.2800,2.0000,2000.0000,1043.0000,1000.0000,-202.0000,-13.0000,80.0000,1514.0000,-847.0000,6825.0000,0.7486,0.1177,-0.6524,-0.0061,198.7900,-43.6000,-84.0800,7.2400,2.0000,-9.6800,0.0000,0.0000,-0.0000,1984.0000,1528.0000,1500.0000,2000.0000
643522.0940,2.0000,2000.0000,1043.0000,1000.0000,-194.0000,9.0000,83.0000,1768.0000,-772.0000,5775.0000,0.7518,0.0888,-0.6532,-0.0154,198.9400,-43.5500,-84.2800,7.0700,2.0700,-9.6900,0.0000,0.0000,-0.0000,1984.0000,1528.0000,1500.0000,2000.0000
643539.0440,2.0000,2000.0000,1043.0000,1000.0000,-156.0000,12.0000,80.0000,1650.0000,-597.0000,4275.0000,0.7551,0.0621,-0.6523,-0.0223,199.0800,-43.5000,-84.4600,6.9900,2.0700,-9.7300,0.0000,0.0000,-0.0000,1984.0000,1528.0000,1500.0000,2000.0000
643556.1720,2.0000,2000.0000,1043.0000,1000.0000,-82.0000,19.0000,72.0000,1446.0000,-193.0000,3044.0000,0.7582,0.0417,-0.6502,-0.0246,199.2100,-43.4600,-84.6500,7.0500,2.0100,-9.7500,0.0000,0.0000,-0.0000,1984.0000,1528.0000,1500.0000,2000.0000
643573.0610,2.0000,2000.0000,1043.0000,1000.0000,21.0000,27.0000,60.0000,1507.0000,26.0000,2574.0000,0.7608,0.0321,-0.6479,-0.0198,199.3900,-43.4100,-84.8500,7.0500,2.0100,-9.7600,0.0000,0.0000,-0.0000,1984.0000,1528.0000,1500.0000,2000.0000
643589.8790,2.0000,2000.0000,1428.0000,1654.0000,114.0000,43.0000,47.0000,1373.0000,100.0000,2291.0000,0.7637,0.0349,-0.6446,-0.0070,199.3900,-43.4100,-84.8500,7.0500,2.0100,-9.7600,0.0000,0.0000,-0.0000,1226.0000,1324.0000,1500.0000,2000.0000
643606.9160,2.0000,2000.0000,1599.0000,1949.0000,204.0000,54.0000,30.0000,1281.0000,36.0000,1697.0000,0.7670,0.0495,-0.6396,0.0132,199.5600,-43.3600,-85.0600,7.1000,1.9900,-9.7800,0.0000,0.0000,-0.0000,1226.0000,1324.0000,1500.0000,2000.0000
643623.8510,2.0000,2000.0000,1599.0000,1949.0000,265.0000,81.0000,12.0000,1118.0000,498.0000,889.0000,0.7713,0.0740,-0.6310,0.0385,199.7200,-43.3100,-85.2600,7.1700,1.9800,-9.8000,0.0000,0.0000,-0.0000,1226.0000,1324.0000,1500.0000,2000.0000
643640.5970,2.0000,2000.0000,1599.0000,1949.0000,295.0000,94.0000,3.0000,1357.0000,302.0000,-120.0000,0.7754,0.1048,-0.6192,0.0662,199.8700,-43.2700,-85.4600,7.3100,1.9300,-9.8100,0.0000,0.0000,-0.0000,1226.0000,1324.0000,1500.0000,2000.0000
643657.8020,2.0000,2000.0000,1599.0000,1949.0000,274.0000,103.0000,-7.0000,1513.0000,256.0000,-1320.0000,0.7793,0.1375,-0.6041,0.0939,200.0100,-43.2300,-85.6600,7.5200,1.8800,-9.8400,0.0000,0.0000,-0.0000,1226.0000,1324.0000,1500.0000,2000.0000
643674.5110,2.0000,2000.0000,1599.0000,1949.0000,212.0000,96.0000,-13.0000,1777.0000,339.0000,-2138.0000,0.7831,0.1644,-0.5885,0.1160,200.2000,-43.1700,-85.8900,7.6100,1.9200,-9.8800,0.0000,0.0000,-0.0000,1226.0000,1324.0000,1500.0000,2000.0000
643691.2440,2.0000,2000.0000,1561.0000,2000.0000,128.0000,83.0000,-14.0000,1776.0000,200.0000,-2963.0000,0.7866,0.1833,-0.5750,0.1308,200.2000,-43.1700,-85.8900,7.6100,1.9200,-9.8800,0.0000,0.0000,-0.0000,1097.0000,1158.0000,1500.0000,2000.0000
