t_ms,msp,motor,servo0,servo1,gyro_p,gyro_q,gyro_r,acc_x,acc_y,acc_z,qw,qx,qy,qz,pos_n,pos_e,pos_d,vel_n,vel_e,vel_d,tgtpos_n,tgtpos_e,tgtpos_d,rcData0,rcData1,rcData2,rcData3
190885.1680,3.0000,1762.0000,1464.0000,1520.0000,20.0000,6.0000,-10.0000,-339.0000,-222.0000,545.0000,-0.0551,-0.0662,-0.0893,0.9923,178.3800,-37.0200,-69.1900,-19.9700,5.1600,3.0000,0.0000,0.0000,-0.0000,1500.0000,1500.0000,1500.0000,1775.0000
190902.2600,3.0000,1762.0000,1474.0000,1526.0000,35.0000,3.0000,-12.0000,-180.0000,-195.0000,997.0000,-0.0531,-0.0669,-0.0852,0.9927,178.3800,-37.0200,-69.1900,-19.9700,5.1600,3.0000,0.0000,0.0000,-0.0000,1500.0000,1500.0000,1500.0000,1776.0000
190918.9270,3.0000,1763.0000,1480.0000,1528.0000,45.0000,0.0000,-14.0000,-93.0000,-179.0000,1431.0000,-0.0509,-0.0672,-0.0792,0.9933,177.9700,-36.9000,-69.1100,-19.9600,5.1600,3.1100,0.0000,0.0000,-0.0000,1500.0000,1500.0000,1500.0000,1776.0000
190935.4480,3.0000,1763.0000,1482.0000,1532.0000,52.0000,1.0000,-15.0000,-114.0000,-206.0000,2126.0000,-0.0486,-0.0673,-0.0715,0.9940,177.5700,-36.7800,-69.0400,-19.9600,5.1700,3.1700,0.0000,0.0000,-0.0000,1500.0000,1500.0000,1500.0000,1776.0000
190952.2540,3.0000,1763.0000,1475.0000,1529.0000,45.0000,5.0000,-11.0000,-217.0000,-454.0000,2687.0000,-0.0464,-0.0679,-0.0647,0.9945,177.1900,-36.6700,-68.9600,-19.9500,5.1800,3.1600,0.0000,0.0000,-0.0000,1500.0000,1500.0000,1500.0000,1776.0000
190968.9900,3.0000,1763.0000,1464.0000,1524.0000,29.0000,9.0000,-7.0000,-299.0000,-659.0000,2447.0000,-0.0449,-0.0690,-0.0595,0.9948,176.7500,-36.5400,-68.8900,-19.9900,5.1700,3.1000,0.0000,0.0000,-0.0000,1500.0000,1500.0000,1500.0000,1776.0000
190985.5470,3.0000,1763.0000,1455.0000,1515.0000,12.0000,10.0000,-1.0000,-224.0000,-507.0000,2043.0000,-0.0444,-0.0704,-0.0566,0.9949,176.7500,-36.5400,-68.8900,-19.9900,5.1700,3.1000,0.0000,0.0000,-0.0000,1500.0000,1500.0000,1500.0000,1776.0000
191002.4580,3.0000,1762.0000,1453.0000,1511.0000,7.0000,7.0000,8.0000,-58.0000,-457.0000,2050.0000,-0.0449,-0.0716,-0.0553,0.9949,176.3300,-36.4200,-68.8100,-20.0100,5.1400,3.0700,0.0000,0.0000,-0.0000,1500.0000,1500.0000,1500.0000,1775.0000
191019.1560,3.0000,1762.0000,1450.0000,1506.0000,-3.0000,6.0000,18.0000,-71.0000,-514.0000,1769.0000,-0.0470,-0.0725,-0.0550,0.9947,175.9300,-36.3000,-68.7400,-20.0300,5.1300,3.0800,0.0000,0.0000,-0.0000,1500.0000,1500.0000,1500.0000,1775.0000
191035.6680,3.0000,1763.0000,1453.0000,1511.0000,4.0000,6.0000,23.0000,-11.0000,-366.0000,1509.0000,-0.0500,-0.0735,-0.0553,0.9945,175.5300,-36.1900,-68.6700,-20.0500,5.1000,3.1000,0.0000,0.0000,-0.0000,1500.0000,1500.0000,1500.0000,1776.0000
191052.2910,3.0000,1763.0000,1462.0000,1516.0000,13.0000,3.0000,22.0000,-104.0000,-344.0000,1075.0000,-0.0532,-0.0744,-0.0542,0.9943,175.1500,-36.0800,-68.5900,-20.0400,5.0800,3.1600,0.0000,0.0000,-0.0000,1500.0000,1500.0000,1500.0000,1776.0000
191069.0320,3.0000,1763.0000,1473.0000,1525.0000,31.0000,1.0000,21.0000,-241.0000,-198.0000,968.0000,-0.0562,-0.0754,-0.0515,0.9942,174.7200,-35.9600,-68.5200,-20.0800,5.0700,3.2500,0.0000,0.0000,-0.0000,1500.0000,1500.0000,1500.0000,1776.0000
191085.6540,3.0000,1763.0000,1474.0000,1526.0000,31.0000,1.0000,22.0000,-290.0000,-28.0000,1431.0000,-0.0591,-0.0763,-0.0475,0.9942,174.7200,-35.9600,-68.5200,-20.0800,5.0700,3.2500,0.0000,0.0000,-0.0000,1500.0000,1500.0000,1500.0000,1776.0000
191102.3490,3.0000,1762.0000,1467.0000,1517.0000,18.0000,-1.0000,22.0000,-154.0000,-193.0000,1872.0000,-0.0620,-0.0767,-0.0445,0.9941,174.3000,-35.8400,-68.4400,-20.0900,5.0800,3.3200,0.0000,0.0000,-0.0000,1500.0000,1500.0000,1500.0000,1775.0000
191119.0570,3.0000,1762.0000,1465.0000,1515.0000,17.0000,-1.0000,18.0000,-100.0000,-233.0000,2071.0000,-0.0649,-0.0769,-0.0423,0.9940,173.8900,-35.7300,-68.3600,-20.1100,5.0800,3.3600,0.0000,0.0000,-0.0000,1500.0000,1500.0000,1500.0000,1775.0000
191135.6640,3.0000,1762.0000,1463.0000,1511.0000,10.0000,-4.0000,10.0000,-261.0000,113.0000,1941.0000,-0.0668,-0.0766,-0.0404,0.9940,173.4900,-35.6200,-68.2800,-20.1200,5.0800,3.3600,0.0000,0.0000,-0.0000,1500.0000,1500.0000,1500.0000,1775.0000
191152.4330,3.0000,1762.0000,1462.0000,1510.0000,8.0000,-2.0000,3.0000,-266.0000,89.0000,1753.0000,-0.0676,-0.0762,-0.0398,0.9940,173.1100,-35.5100,-68.2000,-20.1000,5.1000,3.3800,0.0000,0.0000,-0.0000,1500.0000,1500.0000,1500.0000,1775.0000
191169.0160,3.0000,1762.0000,1458.0000,1508.0000,2.0000,-2.0000,-1.0000,-163.0000,50.0000,1552.0000,-0.0677,-0.0758,-0.0396,0.9940,172.6700,-35.3900,-68.1200,-20.1300,5.1200,3.4200,0.0000,0.0000,-0.0000,1500.0000,1500.0000,1500.0000,1775.0000
191185.6180,3.0000,1762.0000,1460.0000,1508.0000,2.0000,-3.0000,-7.0000,-114.0000,57.0000,1452.0000,-0.0671,-0.0754,-0.0396,0.9941,172.6700,-35.3900,-68.1200,-20.1300,5.1200,3.4200,0.0000,0.0000,-0.0000,1500.0000,1498.0000,1500.0000,1775.0000
191202.6400,3.0000,1762.0000,1458.0000,1506.0000,-2.0000,-3.0000,-15.0000,-96.0000,87.0000,1576.0000,-0.0656,-0.0746,-0.0400,0.9943,172.2400,-35.2700,-68.0400,-20.1500,5.1300,3.4700,0.0000,0.0000,-0.0000,1500.0000,1498.0000,1500.0000,1775.0000
191219.1770,3.0000,1763.0000,1456.0000,1504.0000,-5.0000,-3.0000,-22.0000,-89.0000,32.0000,1856.0000,-0.0630,-0.0738,-0.0406,0.9945,171.8400,-35.1600,-67.9600,-20.1600,5.1400,3.5200,0.0000,0.0000,-0.0000,1500.0000,1500.0000,1500.0000,1776.0000
191235.7850,3.0000,1763.0000,1452.0000,1504.0000,-9.0000,1.0000,-26.0000,-128.0000,1.0000,1928.0000,-0.0596,-0.0735,-0.0415,0.9946,171.4400,-35.0500,-67.8800,-20.1700,5.1400,3.5400,0.0000,0.0000,-0.0000,1500.0000,1500.0000,1500.0000,1776.0000
191252.3300,3.0000,1763.0000,1448.0000,1500.0000,-17.0000,1.0000,-28.0000,-60.0000,-157.0000,2147.0000,-0.0560,-0.0732,-0.0430,0.9948,171.0600,-34.9400,-67.7900,-20.1600,5.1400,3.5500,0.0000,0.0000,-0.0000,1500.0000,1500.0000,1500.0000,1776.0000
191268.9950,3.0000,1763.0000,1441.0000,1495.0000,-27.0000,3.0000,-28.0000,-61.0000,-309.0000,2360.0000,-0.0522,-0.0732,-0.0459,0.9949,171.0600,-34.9400,-67.7900,-20.1600,5.1400,3.5500,0.0000,0.0000,-0.0000,1500.0000,1498.0000,1500.0000,1776.0000
191285.5120,3.0000,1762.0000,1437.0000,1493.0000,-32.0000,4.0000,-27.0000,-126.0000,-470.0000,2142.0000,-0.0486,-0.0734,-0.0502,0.9949,170.6200,-34.8200,-67.7100,-20.2100,5.1300,3.5300,0.0000,0.0000,-0.0000,1500.0000,1500.0000,1500.0000,1775.0000
191302.5730,3.0000,1763.0000,1437.0000,1495.0000,-31.0000,6.0000,-25.0000,-131.0000,-546.0000,1808.0000,-0.0451,-0.0737,-0.0546,0.9948,170.2000,-34.7100,-67.6300,-20.2500,5.1000,3.5100,0.0000,0.0000,-0.0000,1500.0000,1500.0000,1500.0000,1776.0000
191319.1630,3.0000,1763.0000,1444.0000,1502.0000,-19.0000,6.0000,-23.0000,-118.0000,-332.0000,1608.0000,-0.0419,-0.0744,-0.0577,0.9947,169.7900,-34.6000,-67.5500,-20.2600,5.0600,3.5200,0.0000,0.0000,-0.0000,1500.0000,1500.0000,1500.0000,1776.0000
191335.8050,3.0000,1763.0000,1453.0000,1511.0000,-4.0000,6.0000,-23.0000,-29.0000,-401.0000,1686.0000,-0.0389,-0.0748,-0.0589,0.9947,169.3900,-34.4900,-67.4700,-20.2600,5.0300,3.5600,0.0000,0.0000,-0.0000,1500.0000,1498.0000,1500.0000,1776.0000
191352.4360,3.0000,1762.0000,1459.0000,1517.0000,6.0000,6.0000,-20.0000,-35.0000,-465.0000,1975.0000,-0.0359,-0.0754,-0.0585,0.9948,169.0100,-34.3900,-67.3900,-20.2600,5.0000,3.5900,0.0000,0.0000,-0.0000,1500.0000,1500.0000,1500.0000,1775.0000
191368.9450,3.0000,1762.0000,1463.0000,1519.0000,13.0000,4.0000,-15.0000,-181.0000,-497.0000,1782.0000,-0.0333,-0.0762,-0.0569,0.9949,169.0100,-34.3900,-67.3900,-20.2600,5.0000,3.5900,0.0000,0.0000,-0.0000,1500.0000,1500.0000,1500.0000,1776.0000
191385.5150,3.0000,1763.0000,1465.0000,1521.0000,18.0000,4.0000,-10.0000,-147.0000,-490.0000,1848.0000,-0.0315,-0.0769,-0.0544,0.9951,168.5700,-34.2700,-67.3100,-20.3100,4.9800,3.6000,0.0000,0.0000,-0.0000,1500.0000,1500.0000,1500.0000,1776.0000
191402.4040,3.0000,1762.0000,1460.0000,1516.0000,11.0000,3.0000,-5.0000,-99.0000,-430.0000,2120.0000,-0.0305,-0.0773,-0.0517,0.9952,168.1500,-34.1600,-67.2200,-20.3400,4.9600,3.6100,0.0000,0.0000,-0.0000,1500.0000,1500.0000,1500.0000,1775.0000
191419.2720,3.0000,1762.0000,1458.0000,1514.0000,9.0000,3.0000,0.0000,-128.0000,-629.0000,2238.0000,-0.0303,-0.0779,-0.0500,0.9952,167.7400,-34.0600,-67.1400,-20.3600,4.9400,3.6000,0.0000,0.0000,-0.0000,1500.0000,1500.0000,1500.0000,1776.0000
191435.8370,3.0000,1763.0000,1453.0000,1511.0000,2.0000,5.0000,2.0000,-82.0000,-511.0000,2385.0000,-0.0307,-0.0784,-0.0494,0.9952,167.3400,-33.9600,-67.0600,-20.3800,4.9100,3.5900,0.0000,0.0000,-0.0000,1500.0000,1500.0000,1500.0000,1776.0000
191452.5320,3.0000,1763.0000,1456.0000,1510.0000,2.0000,1.0000,5.0000,-236.0000,-429.0000,2228.0000,-0.0314,-0.0789,-0.0489,0.9952,166.9500,-33.8600,-66.9800,-20.3800,4.8900,3.5600,0.0000,0.0000,-0.0000,1500.0000,1498.0000,1500.0000,1776.0000
191469.2470,3.0000,1763.0000,1455.0000,1511.0000,2.0000,3.0000,8.0000,-275.0000,-220.0000,2466.0000,-0.0326,-0.0793,-0.0486,0.9951,166.9500,-33.8600,-66.9800,-20.3800,4.8900,3.5600,0.0000,0.0000,-0.0000,1500.0000,1498.0000,1500.0000,1776.0000
191485.9500,3.0000,1763.0000,1461.0000,1515.0000,11.0000,2.0000,10.0000,-212.0000,-268.0000,2171.0000,-0.0341,-0.0797,-0.0477,0.9951,166.5200,-33.7500,-66.9000,-20.4300,4.8900,3.5200,0.0000,0.0000,-0.0000,1500.0000,1500.0000,1500.0000,1776.0000
191502.9400,3.0000,1763.0000,1463.0000,1515.0000,10.0000,-1.0000,13.0000,-121.0000,-361.0000,2197.0000,-0.0358,-0.0801,-0.0461,0.9951,166.0900,-33.6400,-66.8200,-20.4600,4.9000,3.5000,0.0000,0.0000,-0.0000,1500.0000,1500.0000,1500.0000,1776.0000
191519.6690,3.0000,1763.0000,1460.0000,1514.0000,9.0000,1.0000,13.0000,-100.0000,-403.0000,2434.0000,-0.0378,-0.0803,-0.0448,0.9950,165.6800,-33.5300,-66.7400,-20.4900,4.8900,3.4800,0.0000,0.0000,-0.0000,1500.0000,1500.0000,1500.0000,1776.0000
191536.4540,3.0000,1763.0000,1458.0000,1512.0000,5.0000,2.0000,14.0000,-161.0000,-427.0000,2270.0000,-0.0397,-0.0806,-0.0437,0.9950,165.2700,-33.4300,-66.6600,-20.5000,4.8800,3.4500,0.0000,0.0000,-0.0000,1500.0000,1500.0000,1500.0000,1776.0000
191553.4020,3.0000,1763.0000,1457.0000,1511.0000,3.0000,0.0000,16.0000,-152.0000,-474.0000,2267.0000,-0.0421,-0.0806,-0.0435,0.9949,164.8700,-33.3300,-66.5800,-20.5100,4.8600,3.4300,0.0000,0.0000,-0.0000,1500.0000,1500.0000,1500.0000,1776.0000
191570.1350,3.0000,1762.0000,1455.0000,1509.0000,-1.0000,0.0000,15.0000,-239.0000,-183.0000,2092.0000,-0.0446,-0.0808,-0.0435,0.9948,164.8700,-33.3300,-66.5800,-20.5100,4.8600,3.4300,0.0000,0.0000,-0.0000,1500.0000,1500.0000,1500.0000,1775.0000
191586.7270,3.0000,1762.0000,1454.0000,1506.0000,-4.0000,-1.0000,12.0000,-219.0000,-92.0000,1913.0000,-0.0467,-0.0807,-0.0441,0.9947,164.4300,-33.2200,-66.4900,-20.5500,4.8500,3.4300,0.0000,0.0000,-0.0000,1500.0000,1500.0000,1500.0000,1775.0000
191603.4570,3.0000,1762.0000,1454.0000,1506.0000,-5.0000,-2.0000,6.0000,-162.0000,-46.0000,1864.0000,-0.0481,-0.0806,-0.0455,0.9945,164.0000,-33.1100,-66.4100,-20.5800,4.8600,3.4300,0.0000,0.0000,-0.0000,1500.0000,1500.0000,1500.0000,1775.0000
191619.9910,3.0000,1762.0000,1454.0000,1506.0000,-5.0000,-2.0000,3.0000,-159.0000,-91.0000,1709.0000,-0.0487,-0.0803,-0.0468,0.9945,163.5800,-33.0100,-66.3300,-20.6000,4.8600,3.4500,0.0000,0.0000,-0.0000,1500.0000,1500.0000,1500.0000,1776.0000
191636.7870,3.0000,1763.0000,1454.0000,1502.0000,-9.0000,-4.0000,-2.0000,-203.0000,-207.0000,1607.0000,-0.0490,-0.0797,-0.0484,0.9944,163.1700,-32.9100,-66.2500,-20.6000,4.8600,3.4900,0.0000,0.0000,-0.0000,1500.0000,1500.0000,1500.0000,1776.0000
191653.7210,2.0000,1927.0000,1000.0000,1508.0000,-4.0000,-2.0000,-7.0000,-270.0000,-110.0000,1594.0000,-0.0485,-0.0792,-0.0498,0.9944,163.1700,-32.9100,-66.2500,-20.6000,4.8600,3.4900,0.0000,0.0000,-0.0000,1937.0000,1052.0000,1500.0000,2000.0000
191670.6370,2.0000,2000.0000,1000.0000,1512.0000,-7.0000,-3.0000,-11.0000,-303.0000,-72.0000,1581.0000,-0.0474,-0.0792,-0.0507,0.9944,162.7800,-32.8100,-66.1700,-20.5900,4.8500,3.5300,0.0000,0.0000,-0.0000,1937.0000,1052.0000,1500.0000,2000.0000
191687.4650,2.0000,2000.0000,1000.0000,1512.0000,-10.0000,-6.0000,-16.0000,-132.0000,-92.0000,1629.0000,-0.0456,-0.0787,-0.0521,0.9945,162.3400,-32.7000,-66.0900,-20.6300,4.8500,3.5700,0.0000,0.0000,-0.0000,1937.0000,1052.0000,1500.0000,2000.0000
191704.5310,2.0000,2000.0000,1000.0000,1512.0000,15.0000,-22.0000,-25.0000,155.0000,-333.0000,1754.0000,-0.0428,-0.0766,-0.0520,0.9948,161.9100,-32.6000,-66.0100,-20.6600,4.8400,3.6100,0.0000,0.0000,-0.0000,1937.0000,1052.0000,1500.0000,2000.0000
191721.3260,2.0000,2000.0000,1000.0000,1512.0000,61.0000,-54.0000,-39.0000,-76.0000,-200.0000,1271.0000,-0.0382,-0.0713,-0.0468,0.9956,161.4900,-32.5000,-65.9300,-20.7100,4.8200,3.6500,0.0000,0.0000,-0.0000,1937.0000,1052.0000,1500.0000,2000.0000
191737.9400,2.0000,1852.0000,1195.0000,2000.0000,111.0000,-85.0000,-53.0000,-124.0000,-291.0000,1988.0000,-0.0313,-0.0617,-0.0340,0.9970,161.0800,-32.4000,-65.8400,-20.7200,4.8000,3.7300,0.0000,0.0000,-0.0000,1341.0000,1037.0000,1500.0000,1861.0000
191754.6800,2.0000,1852.0000,1195.0000,2000.0000,153.0000,-110.0000,-66.0000,-98.0000,-485.0000,3465.0000,-0.0222,-0.0476,-0.0144,0.9985,161.0800,-32.4000,-65.8400,-20.7200,4.8000,3.7300,0.0000,0.0000,-0.0000,1341.0000,1037.0000,1500.0000,1861.0000
191771.5470,2.0000,1852.0000,1195.0000,2000.0000,166.0000,-137.0000,-71.0000,52.0000,-664.0000,5343.0000,-0.0118,-0.0302,0.0094,0.9994,160.6900,-32.3000,-65.7500,-20.7300,4.7600,3.6900,0.0000,0.0000,-0.0000,1341.0000,1037.0000,1500.0000,1861.0000
191788.2410,2.0000,1852.0000,1195.0000,2000.0000,132.0000,-161.0000,-67.0000,62.0000,-702.0000,7014.0000,-0.0019,-0.0090,0.0310,0.9995,160.2500,-32.2000,-65.6700,-20.8000,4.7200,3.4700,0.0000,0.0000,-0.0000,1341.0000,1037.0000,1500.0000,1861.0000
191804.9700,2.0000,1852.0000,1195.0000,2000.0000,81.0000,-187.0000,-54.0000,180.0000,-984.0000,8855.0000,0.0076,0.0162,0.0464,0.9988,159.8100,-32.0900,-65.5900,-20.8500,4.6200,3.0600,0.0000,0.0000,-0.0000,1341.0000,1037.0000,1500.0000,1861.0000
191821.5520,2.0000,1852.0000,1195.0000,2000.0000,29.0000,-199.0000,-35.0000,274.0000,-1240.0000,10293.0000,0.0149,0.0439,0.0540,0.9975,159.3900,-32.0000,-65.5100,-20.8400,4.4600,2.4500,0.0000,0.0000,-0.0000,1341.0000,1037.0000,1500.0000,1861.0000
191838.1960,2.0000,1997.0000,1000.0000,1510.0000,1.0000,-214.0000,-16.0000,630.0000,-1569.0000,12281.0000,0.0195,0.0738,0.0555,0.9955,158.9800,-31.9100,-65.4500,-20.7600,4.2400,1.6800,0.0000,0.0000,-0.0000,1930.0000,1062.0000,1500.0000,1999.0000
191854.9900,2.0000,1998.0000,1000.0000,1509.0000,-12.0000,-206.0000,0.0000,1019.0000,-1627.0000,14044.0000,0.0216,0.1043,0.0543,0.9928,158.9800,-31.9100,-65.4500,-20.7600,4.2400,1.6800,0.0000,0.0000,-0.0000,1930.0000,1062.0000,1500.0000,1999.0000
191871.8750,2.0000,1998.0000,1000.0000,1509.0000,-12.0000,-197.0000,10.0000,1342.0000,-1580.0000,15281.0000,0.0216,0.1339,0.0515,0.9894,158.5900,-31.8200,-65.4000,-20.6100,3.9900,0.7200,0.0000,0.0000,-0.0000,1930.0000,1062.0000,1500.0000,1999.0000
191889.0370,2.0000,1998.0000,1000.0000,1509.0000,12.0000,-174.0000,8.0000,1423.0000,-1606.0000,16243.0000,0.0202,0.1615,0.0508,0.9854,158.1400,-31.7300,-65.3600,-20.4200,3.7500,-0.4100,0.0000,0.0000,-0.0000,1930.0000,1062.0000,1500.0000,1999.0000
191905.9130,2.0000,1998.0000,1000.0000,1509.0000,42.0000,-124.0000,-1.0000,1317.0000,-1458.0000,16559.0000,0.0198,0.1833,0.0541,0.9814,157.7100,-31.6500,-65.3500,-20.1200,3.5200,-1.6600,0.0000,0.0000,-0.0000,1930.0000,1062.0000,1500.0000,1999.0000
191922.7280,2.0000,1998.0000,1000.0000,1509.0000,79.0000,-81.0000,-13.0000,1148.0000,-1303.0000,15072.0000,0.0197,0.1983,0.0630,0.9779,157.3100,-31.5700,-65.3600,-19.7300,3.2900,-2.8900,0.0000,0.0000,-0.0000,1930.0000,1062.0000,1500.0000,1999.0000
191939.5680,2.0000,1898.0000,1252.0000,2000.0000,96.0000,-40.0000,-21.0000,957.0000,-990.0000,13490.0000,0.0196,0.2070,0.0762,0.9752,156.9200,-31.5100,-65.4000,-19.3400,3.0800,-3.9700,0.0000,0.0000,-0.0000,1279.0000,1032.0000,1500.0000,1904.0000
191956.4990,2.0000,1898.0000,1252.0000,2000.0000,110.0000,3.0000,-35.0000,807.0000,-986.0000,11535.0000,0.0202,0.2092,0.0919,0.9733,156.9200,-31.5100,-65.4000,-19.3400,3.0800,-3.9700,0.0000,0.0000,-0.0000,1279.0000,1032.0000,1500.0000,1904.0000
191973.5290,2.0000,1898.0000,1252.0000,2000.0000,103.0000,11.0000,-37.0000,617.0000,-866.0000,9214.0000,0.0212,0.2080,0.1093,0.9718,156.5400,-31.4400,-65.4600,-19.0200,2.8700,-4.8400,0.0000,0.0000,-0.0000,1279.0000,1032.0000,1500.0000,1904.0000
191990.3950,2.0000,1898.0000,1252.0000,2000.0000,55.0000,3.0000,-30.0000,432.0000,-789.0000,7044.0000,0.0226,0.2062,0.1218,0.9706,156.1400,-31.3800,-65.5300,-18.8500,2.6500,-5.4800,0.0000,0.0000,-0.0000,1279.0000,1032.0000,1500.0000,1904.0000
192007.2360,2.0000,1898.0000,1252.0000,2000.0000,4.0000,-29.0000,-21.0000,195.0000,-572.0000,5155.0000,0.0254,0.2075,0.1269,0.9696,155.7400,-31.3100,-65.6100,-18.7800,2.4800,-5.8700,0.0000,0.0000,-0.0000,1279.0000,1032.0000,1500.0000,1904.0000
192023.9080,2.0000,1898.0000,1252.0000,2000.0000,-42.0000,-66.0000,-9.0000,171.0000,-603.0000,4550.0000,0.0287,0.2137,0.1248,0.9685,155.3600,-31.2600,-65.6900,-18.7600,2.3800,-6.0700,0.0000,0.0000,-0.0000,1279.0000,1032.0000,1500.0000,1904.0000
192040.4880,2.0000,2000.0000,1000.0000,1510.0000,-74.0000,-107.0000,3.0000,237.0000,-745.0000,4951.0000,0.0323,0.2258,0.1162,0.9667,154.9800,-31.2000,-65.7800,-18.7400,2.2900,-6.2200,0.0000,0.0000,-0.0000,1944.0000,1048.0000,1500.0000,2000.0000
192057.2730,2.0000,2000.0000,1000.0000,1509.0000,-88.0000,-147.0000,9.0000,370.0000,-847.0000,6293.0000,0.0360,0.2434,0.1038,0.9637,154.9800,-31.2000,-65.7800,-18.7400,2.2900,-6.2200,0.0000,0.0000,-0.0000,1944.0000,1048.0000,1500.0000,2000.0000
192073.9340,2.0000,2000.0000,1000.0000,1509.0000,-75.0000,-175.0000,8.0000,517.0000,-755.0000,7886.0000,0.0400,0.2658,0.0908,0.9589,154.6100,-31.1500,-65.8700,-18.6500,2.1800,-6.4400,0.0000,0.0000,-0.0000,1944.0000,1048.0000,1500.0000,2000.0000
192091.0520,2.0000,2000.0000,1000.0000,1509.0000,-31.0000,-187.0000,-3.0000,851.0000,-836.0000,9826.0000,0.0445,0.2919,0.0816,0.9519,154.2100,-31.1000,-65.9600,-18.4300,2.0100,-6.8000,0.0000,0.0000,-0.0000,1944.0000,1048.0000,1500.0000,2000.0000
192108.1060,2.0000,2000.0000,1000.0000,1509.0000,25.0000,-177.0000,-15.0000,1272.0000,-1016.0000,11701.0000,0.0479,0.3177,0.0807,0.9435,153.8200,-31.0500,-66.0700,-18.0800,1.8300,-7.3400,0.0000,0.0000,-0.0000,1944.0000,1048.0000,1500.0000,2000.0000
192125.0100,2.0000,2000.0000,1000.0000,1509.0000,67.0000,-160.0000,-24.0000,1471.0000,-963.0000,12981.0000,0.0501,0.3412,0.0871,0.9346,153.4600,-31.0000,-66.1800,-17.6000,1.6300,-8.0300,0.0000,0.0000,-0.0000,1944.0000,1048.0000,1500.0000,2000.0000
192141.6330,2.0000,1953.0000,1000.0000,1597.0000,91.0000,-133.0000,-31.0000,1495.0000,-889.0000,13259.0000,0.0513,0.3613,0.0985,0.9258,153.1000,-30.9600,-66.3100,-17.0100,1.4000,-8.8000,0.0000,0.0000,-0.0000,1837.0000,1067.0000,1500.0000,1956.0000
192158.2500,2.0000,1953.0000,1000.0000,1597.0000,105.0000,-108.0000,-38.0000,1426.0000,-829.0000,12845.0000,0.0519,0.3777,0.1130,0.9175,153.1000,-30.9600,-66.3100,-17.0100,1.4000,-8.8000,0.0000,0.0000,-0.0000,1837.0000,1067.0000,1500.0000,1956.0000
192174.8510,2.0000,1953.0000,1000.0000,1597.0000,106.0000,-87.0000,-44.0000,1288.0000,-794.0000,11619.0000,0.0522,0.3908,0.1292,0.9099,152.7700,-30.9300,-66.4600,-16.3800,1.1400,-9.5400,0.0000,0.0000,-0.0000,1837.0000,1067.0000,1500.0000,1956.0000
192191.6800,2.0000,1953.0000,1000.0000,1597.0000,100.0000,-83.0000,-45.0000,1332.0000,-819.0000,10685.0000,0.0524,0.4018,0.1455,0.9026,152.4100,-30.9000,-66.6200,-15.8000,0.8200,-10.1500,0.0000,0.0000,-0.0000,1837.0000,1067.0000,1500.0000,1956.0000
192208.7900,2.0000,1953.0000,1000.0000,1597.0000,93.0000,-83.0000,-48.0000,1173.0000,-842.0000,9633.0000,0.0545,0.4127,0.1606,0.8949,152.0800,-30.8800,-66.7900,-15.3100,0.5200,-10.6400,0.0000,0.0000,-0.0000,1837.0000,1067.0000,1500.0000,1956.0000
192225.4020,2.0000,1953.0000,1000.0000,1597.0000,95.0000,-86.0000,-47.0000,1163.0000,-915.0000,8953.0000,0.0565,0.4232,0.1752,0.8871,151.7600,-30.8600,-66.9700,-14.8900,0.2200,-11.0200,0.0000,0.0000,-0.0000,1837.0000,1067.0000,1500.0000,1956.0000
192242.2290,2.0000,1999.0000,1000.0000,1518.0000,99.0000,-94.0000,-46.0000,1086.0000,-1009.0000,8497.0000,0.0582,0.4344,0.1904,0.8784,151.4500,-30.8500,-67.1500,-14.5100,-0.1000,-11.3200,0.0000,0.0000,-0.0000,1934.0000,1049.0000,1500.0000,2000.0000
192259.1490,2.0000,2000.0000,1000.0000,1518.0000,100.0000,-103.0000,-46.0000,1136.0000,-963.0000,8326.0000,0.0596,0.4465,0.2058,0.8687,151.4500,-30.8500,-67.1500,-14.5100,-0.1000,-11.3200,0.0000,0.0000,-0.0000,1934.0000,1049.0000,1500.0000,2000.0000
192275.7370,2.0000,2000.0000,1000.0000,1518.0000,105.0000,-104.0000,-45.0000,1296.0000,-1072.0000,8503.0000,0.0607,0.4587,0.2212,0.8584,151.1200,-30.8500,-67.3400,-14.1600,-0.4900,-11.5600,0.0000,0.0000,-0.0000,1934.0000,1049.0000,1500.0000,2000.0000
192293.0960,2.0000,2000.0000,1000.0000,1518.0000,110.0000,-103.0000,-42.0000,1198.0000,-980.0000,8305.0000,0.0610,0.4712,0.2380,0.8471,150.8000,-30.8600,-67.5400,-13.8000,-0.9000,-11.7700,0.0000,0.0000,-0.0000,1934.0000,1049.0000,1500.0000,2000.0000
192309.7320,2.0000,2000.0000,1000.0000,1518.0000,115.0000,-106.0000,-40.0000,1271.0000,-891.0000,8236.0000,0.0614,0.4833,0.2539,0.8356,150.5100,-30.8700,-67.7300,-13.4500,-1.2900,-11.9500,0.0000,0.0000,-0.0000,1934.0000,1049.0000,1500.0000,2000.0000
192326.5270,2.0000,2000.0000,1000.0000,1518.0000,123.0000,-107.0000,-38.0000,1356.0000,-945.0000,8257.0000,0.0610,0.4956,0.2707,0.8230,150.2200,-30.9000,-67.9400,-13.1000,-1.6900,-12.1000,0.0000,0.0000,-0.0000,1934.0000,1049.0000,1500.0000,2000.0000
192343.2130,2.0000,1690.0000,1000.0000,1562.0000,129.0000,-109.0000,-38.0000,1335.0000,-1000.0000,8148.0000,0.0598,0.5077,0.2881,0.8098,149.9300,-30.9300,-68.1400,-12.7500,-2.1100,-12.2100,0.0000,0.0000,-0.0000,1855.0000,1084.0000,1500.0000,1707.0000
192360.0100,2.0000,1690.0000,1000.0000,1562.0000,130.0000,-106.0000,-35.0000,1311.0000,-1081.0000,7994.0000,0.0578,0.5193,0.3057,0.7959,149.9300,-30.9300,-68.1400,-12.7500,-2.1100,-12.2100,0.0000,0.0000,-0.0000,1855.0000,1084.0000,1500.0000,1707.0000
192376.6000,2.0000,1690.0000,1000.0000,1562.0000,129.0000,-109.0000,-33.0000,974.0000,-917.0000,7412.0000,0.0554,0.5306,0.3231,0.7817,149.6300,-30.9700,-68.3500,-12.3400,-2.6000,-12.2600,0.0000,0.0000,-0.0000,1855.0000,1084.0000,1500.0000,1707.0000
192393.2630,2.0000,1690.0000,1000.0000,1562.0000,125.0000,-115.0000,-30.0000,763.0000,-816.0000,7089.0000,0.0528,0.5419,0.3402,0.7667,149.3500,-31.0200,-68.5500,-11.9900,-3.0400,-12.2400,0.0000,0.0000,-0.0000,1855.0000,1084.0000,1500.0000,1707.0000
192409.9350,2.0000,1690.0000,1000.0000,1562.0000,127.0000,-118.0000,-29.0000,551.0000,-704.0000,6866.0000,0.0510,0.5540,0.3564,0.7507,149.0800,-31.0800,-68.7600,-11.6800,-3.4300,-12.1600,0.0000,0.0000,-0.0000,1855.0000,1084.0000,1500.0000,1707.0000
192426.7750,2.0000,1904.0000,1000.0000,1602.0000,121.0000,-119.0000,-28.0000,529.0000,-720.0000,6796.0000,0.0491,0.5658,0.3721,0.7342,148.8200,-31.1500,-68.9600,-11.4000,-3.7800,-12.0400,0.0000,0.0000,-0.0000,1848.0000,1033.0000,1500.0000,2000.0000
192443.7580,2.0000,2000.0000,1000.0000,1620.0000,115.0000,-121.0000,-28.0000,510.0000,-651.0000,6854.0000,0.0476,0.5773,0.3872,0.7173,148.5700,-31.2200,-69.1500,-11.1400,-4.1100,-11.8700,0.0000,0.0000,-0.0000,1848.0000,1033.0000,1500.0000,2000.0000
192460.4650,2.0000,2000.0000,1000.0000,1620.0000,109.0000,-123.0000,-27.0000,632.0000,-553.0000,6878.0000,0.0464,0.5883,0.4016,0.7004,148.5700,-31.2200,-69.1500,-11.1400,-4.1100,-11.8700,0.0000,0.0000,-0.0000,1848.0000,1033.0000,1500.0000,2000.0000
192477.3550,2.0000,2000.0000,1000.0000,1620.0000,96.0000,-122.0000,-28.0000,906.0000,-441.0000,6588.0000,0.0461,0.5988,0.4149,0.6835,148.3300,-31.2900,-69.3400,-10.8500,-4.4400,-11.6800,0.0000,0.0000,-0.0000,1848.0000,1033.0000,1500.0000,2000.0000
192494.4300,2.0000,2000.0000,1000.0000,1620.0000,94.0000,-131.0000,-30.0000,1158.0000,-465.0000,6837.0000,0.0465,0.6091,0.4277,0.6662,148.0700,-31.3800,-69.5300,-10.4800,-4.8100,-11.4900,0.0000,0.0000,-0.0000,1848.0000,1033.0000,1500.0000,2000.0000
192511.2780,2.0000,2000.0000,1000.0000,1620.0000,83.0000,-134.0000,-29.0000,1308.0000,-586.0000,7288.0000,0.0489,0.6202,0.4389,0.6483,147.8300,-31.4700,-69.7200,-10.1200,-5.1900,-11.2600,0.0000,0.0000,-0.0000,1848.0000,1033.0000,1500.0000,2000.0000
192528.3760,2.0000,2000.0000,1101.0000,2000.0000,80.0000,-135.0000,-30.0000,1337.0000,-629.0000,7459.0000,0.0520,0.6309,0.4495,0.6302,147.6000,-31.5700,-69.9100,-9.7300,-5.5900,-10.9900,0.0000,0.0000,-0.0000,1407.0000,1018.0000,1500.0000,2000.0000
192545.2130,2.0000,2000.0000,1110.0000,2000.0000,81.0000,-137.0000,-31.0000,1561.0000,-624.0000,7381.0000,0.0550,0.6411,0.4599,0.6120,147.3800,-31.6800,-70.0900,-9.3300,-6.0000,-10.6900,0.0000,0.0000,-0.0000,1407.0000,1018.0000,1500.0000,2000.0000
192562.0120,2.0000,2000.0000,1110.0000,2000.0000,81.0000,-141.0000,-32.0000,1642.0000,-816.0000,7913.0000,0.0583,0.6509,0.4703,0.5931,147.3800,-31.6800,-70.0900,-9.3300,-6.0000,-10.6900,0.0000,0.0000,-0.0000,1407.0000,1018.0000,1500.0000,2000.0000
192578.8640,2.0000,2000.0000,1110.0000,2000.0000,65.0000,-143.0000,-30.0000,1649.0000,-874.0000,8203.0000,0.0622,0.6603,0.4801,0.5741,147.1500,-31.8100,-70.2700,-8.8700,-6.5000,-10.3500,0.0000,0.0000,-0.0000,1407.0000,1018.0000,1500.0000,2000.0000
192596.0260,2.0000,2000.0000,1110.0000,2000.0000,36.0000,-153.0000,-26.0000,1487.0000,-809.0000,8195.0000,0.0689,0.6701,0.4874,0.5555,146.9500,-31.9400,-70.4500,-8.4100,-6.9800,-9.9600,0.0000,0.0000,-0.0000,1407.0000,1018.0000,1500.0000,2000.0000
192612.9950,2.0000,2000.0000,1110.0000,2000.0000,4.0000,-162.0000,-20.0000,1527.0000,-734.0000,8090.0000,0.0795,0.6807,0.4905,0.5382,146.7500,-32.0800,-70.6100,-7.9600,-7.4100,-9.5200,0.0000,0.0000,-0.0000,1407.0000,1018.0000,1500.0000,2000.0000
192630.0160,2.0000,2000.0000,1110.0000,2000.0000,-13.0000,-167.0000,-15.0000,1557.0000,-748.0000,8453.0000,0.0925,0.6916,0.4910,0.5216,146.5800,-32.2200,-70.7700,-7.5300,-7.7800,-9.0500,0.0000,0.0000,-0.0000,1407.0000,1018.0000,1500.0000,2000.0000
192646.7480,2.0000,2000.0000,1000.0000,1612.0000,-24.0000,-162.0000,-13.0000,1601.0000,-640.0000,8743.0000,0.1063,0.7018,0.4899,0.5061,146.4000,-32.3800,-70.9200,-7.0400,-8.1600,-8.5300,0.0000,0.0000,-0.0000,1851.0000,1038.0000,1500.0000,2000.0000
192663.7910,2.0000,2000.0000,1000.0000,1612.0000,-31.0000,-160.0000,-14.0000,1705.0000,-666.0000,8961.0000,0.1209,0.7113,0.4880,0.4913,146.4000,-32.3800,-70.9200,-7.0400,-8.1600,-8.5300,0.0000,0.0000,-0.0000,1851.0000,1038.0000,1500.0000,2000.0000
192680.7960,2.0000,2000.0000,1000.0000,1612.0000,-17.0000,-153.0000,-17.0000,1745.0000,-709.0000,9099.0000,0.1349,0.7198,0.4865,0.4764,146.2300,-32.5500,-71.0600,-6.4800,-8.5700,-7.9700,0.0000,0.0000,-0.0000,1851.0000,1038.0000,1500.0000,2000.0000
192697.5980,2.0000,2000.0000,1000.0000,1612.0000,-1.0000,-137.0000,-24.0000,1765.0000,-677.0000,9073.0000,0.1466,0.7270,0.4866,0.4617,146.0800,-32.7200,-71.1900,-5.9300,-8.9200,-7.4000,0.0000,0.0000,-0.0000,1851.0000,1038.0000,1500.0000,2000.0000
192714.4270,2.0000,2000.0000,1000.0000,1612.0000,11.0000,-120.0000,-31.0000,1740.0000,-537.0000,8679.0000,0.1563,0.7331,0.4880,0.4472,145.9400,-32.8900,-71.3100,-5.4000,-9.2200,-6.8000,0.0000,0.0000,-0.0000,1851.0000,1038.0000,1500.0000,2000.0000
192731.4750,2.0000,1991.0000,1000.0000,1773.0000,17.0000,-106.0000,-41.0000,1491.0000,-403.0000,8341.0000,0.1649,0.7374,0.4912,0.4333,145.8100,-33.0700,-71.4100,-4.9200,-9.4600,-6.2100,0.0000,0.0000,-0.0000,1132.0000,1037.0000,1500.0000,1964.0000
192748.3010,2.0000,1962.0000,1405.0000,2000.0000,15.0000,-90.0000,-48.0000,1433.0000,-522.0000,7747.0000,0.1725,0.7399,0.4957,0.4208,145.6900,-33.2600,-71.5100,-4.4500,-9.6900,-5.6200,0.0000,0.0000,-0.0000,1132.0000,1037.0000,1500.0000,1964.0000
192765.2180,2.0000,1962.0000,1405.0000,2000.0000,8.0000,-83.0000,-53.0000,1578.0000,-721.0000,6933.0000,0.1800,0.7411,0.5008,0.4094,145.6900,-33.2600,-71.5100,-4.4500,-9.6900,-5.6200,0.0000,0.0000,-0.0000,1132.0000,1037.0000,1500.0000,1964.0000
192782.1530,2.0000,1962.0000,1405.0000,2000.0000,-15.0000,-82.0000,-55.0000,1587.0000,-649.0000,6072.0000,0.1888,0.7411,0.5057,0.3993,145.5700,-33.4600,-71.6000,-4.0400,-9.9900,-5.0600,0.0000,0.0000,-0.0000,1132.0000,1037.0000,1500.0000,1964.0000
192799.2840,2.0000,1962.0000,1405.0000,2000.0000,-55.0000,-84.0000,-50.0000,1452.0000,-660.0000,5425.0000,0.2014,0.7402,0.5081,0.3916,145.4600,-33.6600,-71.6900,-3.7300,-10.2500,-4.5600,0.0000,0.0000,-0.0000,1132.0000,1037.0000,1500.0000,1964.0000
192816.0190,2.0000,1962.0000,1405.0000,2000.0000,-80.0000,-96.0000,-42.0000,1489.0000,-702.0000,4873.0000,0.2177,0.7393,0.5072,0.3857,145.3600,-33.8600,-71.7600,-3.4900,-10.4500,-4.0800,0.0000,0.0000,-0.0000,1132.0000,1037.0000,1500.0000,1964.0000
192832.9520,2.0000,1962.0000,1405.0000,2000.0000,-104.0000,-106.0000,-34.0000,1476.0000,-820.0000,5139.0000,0.2370,0.7385,0.5036,0.3805,145.2600,-34.0600,-71.8300,-3.3000,-10.6200,-3.6200,0.0000,0.0000,-0.0000,1132.0000,1037.0000,1500.0000,1964.0000
192849.7840,2.0000,1956.0000,1319.0000,2000.0000,-119.0000,-117.0000,-27.0000,1472.0000,-854.0000,5716.0000,0.2588,0.7379,0.4974,0.3758,145.1700,-34.2800,-71.8800,-3.0000,-10.8400,-3.1300,0.0000,0.0000,-0.0000,1278.0000,1098.0000,1500.0000,1959.0000
192866.6830,2.0000,1956.0000,1319.0000,2000.0000,-118.0000,-124.0000,-20.0000,1519.0000,-970.0000,6364.0000,0.2817,0.7375,0.4891,0.3707,145.1700,-34.2800,-71.8800,-3.0000,-10.8400,-3.1300,0.0000,0.0000,-0.0000,1278.0000,1098.0000,1500.0000,1959.0000
192883.5550,2.0000,1956.0000,1319.0000,2000.0000,-104.0000,-132.0000,-17.0000,1459.0000,-1014.0000,6613.0000,0.3034,0.7378,0.4805,0.3643,145.0800,-34.5100,-71.9300,-2.5500,-11.1100,-2.6000,0.0000,0.0000,-0.0000,1278.0000,1098.0000,1500.0000,1959.0000
192900.6020,2.0000,1956.0000,1319.0000,2000.0000,-91.0000,-139.0000,-14.0000,1617.0000,-841.0000,6608.0000,0.3242,0.7391,0.4712,0.3558,145.0100,-34.7400,-71.9700,-2.0700,-11.3400,-2.0300,0.0000,0.0000,-0.0000,1278.0000,1098.0000,1500.0000,1959.0000
192917.6570,2.0000,1956.0000,1319.0000,2000.0000,-76.0000,-142.0000,-10.0000,1687.0000,-781.0000,6963.0000,0.3437,0.7411,0.4617,0.3458,144.9500,-34.9700,-72.0000,-1.5900,-11.5100,-1.4900,0.0000,0.0000,-0.0000,1278.0000,1098.0000,1500.0000,1959.0000
192934.4610,2.0000,1972.0000,1513.0000,2000.0000,-69.0000,-144.0000,-6.0000,1870.0000,-1092.0000,7588.0000,0.3613,0.7436,0.4521,0.3348,144.9000,-35.2000,-72.0200,-1.1000,-11.6300,-0.9400,0.0000,0.0000,-0.0000,1035.0000,1048.0000,1500.0000,1975.0000
192951.3960,2.0000,1973.0000,1513.0000,2000.0000,-65.0000,-146.0000,-4.0000,1709.0000,-698.0000,7705.0000,0.3784,0.7462,0.4420,0.3234,144.8600,-35.4300,-72.0300,-0.4900,-11.7500,-0.3500,0.0000,0.0000,-0.0000,1035.0000,1048.0000,1500.0000,1975.0000
192968.2230,2.0000,1973.0000,1513.0000,2000.0000,-68.0000,-139.0000,1.0000,1855.0000,-698.0000,8093.0000,0.3946,0.7487,0.4316,0.3121,144.8600,-35.4300,-72.0300,-0.4900,-11.7500,-0.3500,0.0000,0.0000,-0.0000,1035.0000,1048.0000,1500.0000,1975.0000
192984.6900,2.0000,1973.0000,1513.0000,2000.0000,-89.0000,-125.0000,9.0000,1785.0000,-711.0000,8357.0000,0.4107,0.7500,0.4206,0.3032,144.8400,-35.6900,-72.0300,0.2300,-11.8400,0.2200,0.0000,0.0000,-0.0000,1035.0000,1048.0000,1500.0000,1975.0000
193001.7960,2.0000,1973.0000,1513.0000,2000.0000,-111.0000,-111.0000,15.0000,1716.0000,-785.0000,8262.0000,0.4286,0.7495,0.4077,0.2972,144.8300,-35.9400,-72.0200,0.9400,-11.8700,0.8100,0.0000,0.0000,-0.0000,1035.0000,1048.0000,1500.0000,1975.0000
193018.6590,2.0000,1973.0000,1513.0000,2000.0000,-129.0000,-101.0000,18.0000,1551.0000,-542.0000,7780.0000,0.4474,0.7471,0.3941,0.2938,144.8400,-36.1800,-72.0000,1.6100,-11.8500,1.3700,0.0000,0.0000,-0.0000,1035.0000,1048.0000,1500.0000,1975.0000
193035.3720,2.0000,1171.0000,1000.0000,1453.0000,-146.0000,-89.0000,20.0000,1548.0000,-328.0000,7471.0000,0.4667,0.7429,0.3801,0.2929,144.8600,-36.4200,-71.9700,2.2100,-11.7800,1.8700,0.0000,0.0000,-0.0000,1937.0000,1112.0000,1500.0000,1216.0000
193052.3710,2.0000,1171.0000,1000.0000,1452.0000,-154.0000,-81.0000,17.0000,1520.0000,-234.0000,7291.0000,0.4870,0.7369,0.3658,0.2934,144.9000,-36.6700,-71.9300,2.8700,-11.7100,2.3000,0.0000,0.0000,-0.0000,1937.0000,1112.0000,1500.0000,1216.0000
193069.2550,2.0000,1171.0000,1000.0000,1452.0000,-149.0000,-77.0000,13.0000,1289.0000,-276.0000,6958.0000,0.5069,0.7297,0.3520,0.2944,144.9000,-36.6700,-71.9300,2.8700,-11.7100,2.3000,0.0000,0.0000,-0.0000,1937.0000,1112.0000,1500.0000,1216.0000
193086.1190,2.0000,1171.0000,1000.0000,1452.0000,-118.0000,-82.0000,0.0000,693.0000,-68.0000,6013.0000,0.5250,0.7229,0.3398,0.2937,144.9600,-36.9200,-71.8900,3.5600,-11.6300,2.6900,0.0000,0.0000,-0.0000,1937.0000,1112.0000,1500.0000,1216.0000
193102.7170,2.0000,1171.0000,1000.0000,1452.0000,-68.0000,-90.0000,-17.0000,86.0000,78.0000,5382.0000,0.5392,0.7190,0.3302,0.2887,145.0300,-37.1700,-71.8400,4.1300,-11.5300,3.0000,0.0000,0.0000,-0.0000,1937.0000,1112.0000,1500.0000,1216.0000
193119.2730,2.0000,1171.0000,1000.0000,1452.0000,-12.0000,-98.0000,-40.0000,-110.0000,47.0000,5251.0000,0.5488,0.7185,0.3242,0.2783,145.1000,-37.4100,-71.7900,4.5700,-11.3900,3.2600,0.0000,0.0000,-0.0000,1937.0000,1112.0000,1500.0000,1216.0000
193135.9540,2.0000,1000.0000,1000.0000,1416.0000,35.0000,-100.0000,-60.0000,-170.0000,30.0000,5306.0000,0.5539,0.7211,0.3223,0.2633,145.1900,-37.6400,-71.7400,4.9400,-11.2200,3.5000,0.0000,0.0000,-0.0000,1335.0000,1873.0000,1500.0000,1000.0000
193152.8410,2.0000,1000.0000,2000.0000,1292.0000,69.0000,-99.0000,-78.0000,-199.0000,-14.0000,5343.0000,0.5556,0.7259,0.3235,0.2444,145.2900,-37.8800,-71.6900,5.3800,-11.0400,3.7600,0.0000,0.0000,-0.0000,1335.0000,1873.0000,1500.0000,1000.0000
193169.8230,2.0000,1000.0000,2000.0000,1292.0000,94.0000,-91.0000,-91.0000,-216.0000,-10.0000,5675.0000,0.5544,0.7319,0.3275,0.2231,145.2900,-37.8800,-71.6900,5.3800,-11.0400,3.7600,0.0000,0.0000,-0.0000,1335.0000,1873.0000,1500.0000,1000.0000
193186.8940,2.0000,1000.0000,2000.0000,1292.0000,117.0000,-66.0000,-97.0000,-247.0000,-102.0000,6089.0000,0.5497,0.7383,0.3347,0.2015,145.4100,-38.1200,-71.6300,5.8800,-10.8400,4.0400,0.0000,0.0000,-0.0000,1335.0000,1873.0000,1500.0000,1000.0000
193203.6780,2.0000,1000.0000,2000.0000,1292.0000,132.0000,-32.0000,-100.0000,-303.0000,-80.0000,6069.0000,0.5413,0.7448,0.3451,0.1820,145.5300,-38.3500,-71.5700,6.3700,-10.5900,4.3500,0.0000,0.0000,-0.0000,1335.0000,1873.0000,1500.0000,1000.0000
193220.3200,2.0000,1000.0000,2000.0000,1292.0000,133.0000,3.0000,-101.0000,-344.0000,-114.0000,5672.0000,0.5298,0.7508,0.3581,0.1654,145.6600,-38.5800,-71.5000,6.8200,-10.3300,4.7000,0.0000,0.0000,-0.0000,1335.0000,1873.0000,1500.0000,1000.0000
193237.0330,2.0000,1000.0000,1383.0000,1000.0000,116.0000,44.0000,-98.0000,-470.0000,-158.0000,5098.0000,0.5170,0.7547,0.3736,0.1534,145.8000,-38.8000,-71.4300,7.2100,-10.1000,5.0500,0.0000,0.0000,-0.0000,1957.0000,1776.0000,1500.0000,1000.0000
193253.7980,2.0000,1000.0000,1319.0000,1000.0000,78.0000,94.0000,-94.0000,-603.0000,-147.0000,4069.0000,0.5047,0.7554,0.3909,0.1479,145.9600,-39.0200,-71.3500,7.6000,-9.9200,5.3800,0.0000,0.0000,-0.0000,1957.0000,1776.0000,1500.0000,1000.0000
193271.0540,2.0000,1000.0000,1319.0000,1000.0000,42.0000,157.0000,-85.0000,-665.0000,-151.0000,2487.0000,0.4927,0.7518,0.4110,0.1517,145.9600,-39.0200,-71.3500,7.6000,-9.9200,5.3800,0.0000,0.0000,-0.0000,1957.0000,1776.0000,1500.0000,1000.0000
193288.0860,2.0000,1000.0000,1319.0000,1000.0000,52.0000,216.0000,-72.0000,-623.0000,-293.0000,-153.0000,0.4783,0.7460,0.4334,0.1639,146.1300,-39.2500,-71.2700,7.9500,-9.8400,5.6600,0.0000,0.0000,-0.0000,1957.0000,1776.0000,1500.0000,1000.0000
193305.1300,2.0000,1000.0000,1319.0000,1000.0000,108.0000,248.0000,-57.0000,-741.0000,-351.0000,-3627.0000,0.4558,0.7417,0.4581,0.1798,146.3000,-39.4700,-71.1900,8.1300,-9.9400,5.8000,0.0000,0.0000,-0.0000,1957.0000,1776.0000,1500.0000,1000.0000
193322.1310,2.0000,1000.0000,1319.0000,1000.0000,173.0000,229.0000,-47.0000,-847.0000,-116.0000,-7080.0000,0.4251,0.7412,0.4825,0.1926,146.4700,-39.6900,-71.1300,8.0800,-10.2400,5.7200,0.0000,0.0000,-0.0000,1957.0000,1776.0000,1500.0000,1000.0000
193339.2500,2.0000,1000.0000,1000.0000,1308.0000,237.0000,165.0000,-44.0000,-990.0000,54.0000,-9165.0000,0.3889,0.7455,0.5046,0.1959,146.6400,-39.9200,-71.0900,7.8100,-10.6600,5.2200,0.0000,0.0000,-0.0000,1946.0000,1247.0000,1500.0000,1000.0000
193356.0140,2.0000,1000.0000,1000.0000,1308.0000,285.0000,101.0000,-41.0000,-1128.0000,111.0000,-8520.0000,0.3515,0.7540,0.5223,0.1874,146.7900,-40.1600,-71.0800,7.4800,-11.0300,4.5800,0.0000,0.0000,-0.0000,1946.0000,1247.0000,1500.0000,1000.0000
193373.0010,2.0000,1000.0000,1000.0000,1308.0000,308.0000,42.0000,-38.0000,-1112.0000,152.0000,-7427.0000,0.3137,0.7649,0.5364,0.1695,146.7900,-40.1600,-71.0800,7.4800,-11.0300,4.5800,0.0000,0.0000,-0.0000,1946.0000,1247.0000,1500.0000,1000.0000
193389.8390,2.0000,1000.0000,1000.0000,1308.0000,320.0000,-34.0000,-37.0000,-1095.0000,225.0000,-6941.0000,0.2791,0.7770,0.5461,0.1423,146.9400,-40.3900,-71.0800,7.2700,-11.2700,4.0400,0.0000,0.0000,-0.0000,1946.0000,1247.0000,1500.0000,1000.0000
193406.7310,2.0000,1000.0000,1000.0000,1308.0000,322.0000,-93.0000,-38.0000,-1052.0000,250.0000,-6027.0000,0.2480,0.7884,0.5527,0.1070,147.0700,-40.6100,-71.1000,7.1600,-11.4400,3.5500,0.0000,0.0000,-0.0000,1946.0000,1247.0000,1500.0000,1000.0000
193423.3960,2.0000,1000.0000,1000.0000,1308.0000,320.0000,-147.0000,-36.0000,-983.0000,115.0000,-4136.0000,0.2218,0.7984,0.5559,0.0655,147.2000,-40.8400,-71.1200,7.1500,-11.5700,3.1300,0.0000,0.0000,-0.0000,1946.0000,1247.0000,1500.0000,1000.0000
193440.3870,2.0000,1000.0000,1699.0000,2000.0000,330.0000,-176.0000,-30.0000,-908.0000,-142.0000,-1831.0000,0.1971,0.8072,0.5560,0.0180,147.3300,-41.0600,-71.1400,7.2500,-11.6400,2.9200,0.0000,0.0000,-0.0000,1007.0000,1206.0000,1500.0000,1000.0000
193457.2530,2.0000,1000.0000,1699.0000,2000.0000,335.0000,-185.0000,-20.0000,-767.0000,-341.0000,377.0000,0.1722,0.8144,0.5533,-0.0318,147.4600,-41.2700,-71.1700,7.4300,-11.6500,2.9700,0.0000,0.0000,-0.0000,1007.0000,1206.0000,1500.0000,1000.0000
193473.9330,2.0000,1000.0000,1699.0000,2000.0000,325.0000,-173.0000,-6.0000,-592.0000,-438.0000,2370.0000,0.1470,0.8194,0.5482,-0.0801,147.4600,-41.2700,-71.1700,7.4300,-11.6500,2.9700,0.0000,0.0000,-0.0000,1007.0000,1206.0000,1500.0000,1000.0000
193490.9990,2.0000,1000.0000,1699.0000,2000.0000,274.0000,-156.0000,11.0000,-460.0000,-499.0000,3474.0000,0.1233,0.8228,0.5406,-0.1246,147.5900,-41.4800,-71.2000,7.6100,-11.6000,3.2700,0.0000,0.0000,-0.0000,1007.0000,1206.0000,1500.0000,1000.0000
193507.9370,2.0000,1000.0000,1699.0000,2000.0000,195.0000,-146.0000,33.0000,-415.0000,-581.0000,3921.0000,0.1069,0.8257,0.5298,-0.1614,147.7200,-41.6800,-71.2100,7.7600,-11.5100,3.7500,0.0000,0.0000,-0.0000,1007.0000,1206.0000,1500.0000,1000.0000
193524.5450,2.0000,1000.0000,1699.0000,2000.0000,111.0000,-136.0000,56.0000,-463.0000,-655.0000,4317.0000,0.1005,0.8283,0.5178,-0.1892,147.8400,-41.8700,-71.2100,7.8400,-11.4100,4.2800,0.0000,0.0000,-0.0000,1007.0000,1206.0000,1500.0000,1000.0000
193541.1020,2.0000,1997.0000,1497.0000,2000.0000,21.0000,-122.0000,77.0000,-511.0000,-661.0000,4914.0000,0.1042,0.8308,0.5054,-0.2086,147.9700,-42.0600,-71.1800,7.8600,-11.2800,4.8300,0.0000,0.0000,-0.0000,1112.0000,1108.0000,1500.0000,1999.0000
193557.8390,2.0000,1998.0000,1496.0000,2000.0000,-66.0000,-106.0000,94.0000,-547.0000,-577.0000,5155.0000,0.1182,0.8333,0.4936,-0.2192,148.1000,-42.2500,-71.1400,7.8400,-11.1100,5.4200,0.0000,0.0000,-0.0000,1112.0000,1108.0000,1500.0000,1999.0000
193574.6970,2.0000,1998.0000,1496.0000,2000.0000,-129.0000,-99.0000,106.0000,-481.0000,-480.0000,5048.0000,0.1410,0.8355,0.4822,-0.2226,148.1000,-42.2500,-71.1400,7.8400,-11.1100,5.4200,0.0000,0.0000,-0.0000,1112.0000,1108.0000,1500.0000,1999.0000
193591.6180,2.0000,1998.0000,1496.0000,2000.0000,-169.0000,-96.0000,113.0000,10.0000,-374.0000,4576.0000,0.1703,0.8365,0.4715,-0.2213,148.2200,-42.4300,-71.0900,7.8300,-10.9300,6.0000,0.0000,0.0000,-0.0000,1112.0000,1108.0000,1500.0000,1999.0000
193608.6710,2.0000,1998.0000,1496.0000,2000.0000,-185.0000,-103.0000,115.0000,735.0000,-236.0000,4350.0000,0.2031,0.8366,0.4597,-0.2182,148.3400,-42.6000,-71.0200,7.8600,-10.7600,6.5500,0.0000,0.0000,-0.0000,1112.0000,1108.0000,1500.0000,1999.0000
193625.4630,2.0000,1998.0000,1496.0000,2000.0000,-195.0000,-108.0000,109.0000,1232.0000,-166.0000,4617.0000,0.2369,0.8348,0.4481,-0.2150,148.4700,-42.7600,-70.9400,7.9500,-10.6400,7.1200,0.0000,0.0000,-0.0000,1112.0000,1108.0000,1500.0000,1999.0000
193642.2320,2.0000,2000.0000,1000.0000,1475.0000,-193.0000,-114.0000,101.0000,1397.0000,-258.0000,4891.0000,0.2710,0.8311,0.4369,-0.2121,148.5800,-42.9200,-70.8400,8.0900,-10.5100,7.7500,0.0000,0.0000,-0.0000,1974.0000,1053.0000,1500.0000,2000.0000
193659.2360,2.0000,2000.0000,1000.0000,1474.0000,-196.0000,-122.0000,92.0000,1270.0000,-237.0000,4758.0000,0.3055,0.8253,0.4260,-0.2100,148.7000,-43.0700,-70.7300,8.2400,-10.3500,8.3800,0.0000,0.0000,-0.0000,1974.0000,1053.0000,1500.0000,2000.0000
193676.3300,2.0000,2000.0000,1000.0000,1474.0000,-184.0000,-131.0000,78.0000,1293.0000,73.0000,4941.0000,0.3396,0.8175,0.4155,-0.2092,148.7000,-43.0700,-70.7300,8.2400,-10.3500,8.3800,0.0000,0.0000,-0.0000,1974.0000,1053.0000,1500.0000,2000.0000
193693.0670,2.0000,2000.0000,1000.0000,1474.0000,-145.0000,-144.0000,59.0000,1446.0000,247.0000,5279.0000,0.3698,0.8087,0.4054,-0.2121,148.8200,-43.2000,-70.6100,8.4200,-10.1500,8.9900,0.0000,0.0000,-0.0000,1974.0000,1053.0000,1500.0000,2000.0000
193710.1080,2.0000,2000.0000,1000.0000,1474.0000,-94.0000,-157.0000,32.0000,1484.0000,216.0000,5717.0000,0.3947,0.7998,0.3949,-0.2206,148.9300,-43.3400,-70.4700,8.6200,-9.9000,9.5800,0.0000,0.0000,-0.0000,1974.0000,1053.0000,1500.0000,2000.0000
193727.2860,2.0000,2000.0000,1000.0000,1474.0000,-31.0000,-160.0000,-1.0000,1606.0000,228.0000,6454.0000,0.4117,0.7916,0.3855,-0.2352,149.0500,-43.4500,-70.3200,8.8200,-9.6000,10.1600,0.0000,0.0000,-0.0000,1974.0000,1053.0000,1500.0000,2000.0000
193743.9270,2.0000,2000.0000,1000.0000,1494.0000,15.0000,-152.0000,-30.0000,1743.0000,200.0000,7223.0000,0.4207,0.7846,0.3781,-0.2538,149.1600,-43.5600,-70.1600,9.0100,-9.2400,10.7600,0.0000,0.0000,-0.0000,1957.0000,1050.0000,1500.0000,2000.0000
193760.9100,2.0000,2000.0000,1000.0000,1494.0000,48.0000,-146.0000,-55.0000,1774.0000,102.0000,7686.0000,0.4236,0.7783,0.3726,-0.2757,149.4000,-43.7500,-69.9900,9.3900,-8.8500,11.3900,0.0000,0.0000,-0.0000,1957.0000,1050.0000,1500.0000,2000.0000
193777.7210,2.0000,2000.0000,1000.0000,1494.0000,70.0000,-133.0000,-75.0000,1723.0000,-59.0000,7798.0000,0.4216,0.7725,0.3690,-0.2989,149.4000,-43.7500,-69.9900,9.3900,-8.8500,11.3900,0.0000,0.0000,-0.0000,1957.0000,1050.0000,1500.0000,2000.0000
193794.3160,2.0000,2000.0000,1000.0000,1494.0000,84.0000,-120.0000,-87.0000,1628.0000,-109.0000,7752.0000,0.4161,0.7670,0.3673,-0.3219,149.7300,-44.0000,-69.8000,9.8600,-8.4600,12.0500,0.0000,0.0000,-0.0000,1957.0000,1050.0000,1500.0000,2000.0000
193811.3100,2.0000,2000.0000,1000.0000,1494.0000,85.0000,-109.0000,-95.0000,1527.0000,-225.0000,7284.0000,0.4083,0.7615,0.3665,-0.3451,150.0500,-44.2300,-69.5900,10.2200,-8.0900,12.6700,0.0000,0.0000,-0.0000,1957.0000,1050.0000,1500.0000,2000.0000
193828.1270,2.0000,2000.0000,1000.0000,1696.0000,89.0000,-105.0000,-100.0000,1523.0000,-405.0000,6931.0000,0.3994,0.7557,0.3666,-0.3674,150.3700,-44.4400,-69.3700,10.5200,-7.7600,13.2700,0.0000,0.0000,-0.0000,1018.0000,1085.0000,1500.0000,2000.0000
193845.0250,2.0000,2000.0000,1567.0000,2000.0000,100.0000,-101.0000,-102.0000,1456.0000,-646.0000,6756.0000,0.3889,0.7499,0.3667,-0.3898,150.6800,-44.6500,-69.1500,10.7400,-7.4700,13.8400,0.0000,0.0000,-0.0000,1018.0000,1085.0000,1500.0000,2000.0000
193861.5930,2.0000,2000.0000,1567.0000,2000.0000,114.0000,-99.0000,-100.0000,1377.0000,-755.0000,6553.0000,0.3767,0.7447,0.3659,-0.4118,151.0100,-44.8500,-68.9000,10.8900,-7.2000,14.3800,0.0000,0.0000,-0.0000,1018.0000,1085.0000,1500.0000,2000.0000
193878.4170,2.0000,2000.0000,1567.0000,2000.0000,97.0000,-103.0000,-94.0000,1456.0000,-818.0000,6339.0000,0.3644,0.7391,0.3643,-0.4339,151.0100,-44.8500,-68.9000,10.8900,-7.2000,14.3800,0.0000,0.0000,-0.0000,1018.0000,1085.0000,1500.0000,2000.0000
193895.3190,2.0000,2000.0000,1567.0000,2000.0000,53.0000,-112.0000,-80.0000,1304.0000,-763.0000,6312.0000,0.3562,0.7313,0.3632,-0.4543,151.3400,-45.0500,-68.6500,10.9900,-6.9500,14.9100,0.0000,0.0000,-0.0000,1018.0000,1085.0000,1500.0000,2000.0000
193912.3150,2.0000,2000.0000,1567.0000,2000.0000,-7.0000,-122.0000,-59.0000,1205.0000,-1040.0000,6452.0000,0.3555,0.7206,0.3629,-0.4718,151.6700,-45.2500,-68.3800,11.0500,-6.7100,15.4100,0.0000,0.0000,-0.0000,1018.0000,1085.0000,1500.0000,2000.0000
193929.1030,2.0000,2000.0000,1567.0000,2000.0000,-66.0000,-124.0000,-33.0000,1165.0000,-1411.0000,7284.0000,0.3627,0.7076,0.3637,-0.4852,151.9900,-45.4300,-68.1100,11.0500,-6.4600,15.8900,0.0000,0.0000,-0.0000,1018.0000,1085.0000,1500.0000,2000.0000
193945.8680,2.0000,2000.0000,1000.0000,1485.0000,-116.0000,-116.0000,-8.0000,1355.0000,-1481.0000,7746.0000,0.3771,0.6930,0.3659,-0.4936,152.3000,-45.6000,-67.8200,10.9700,-6.1600,16.3800,0.0000,0.0000,-0.0000,1962.0000,1055.0000,1500.0000,2000.0000
193962.6560,2.0000,2000.0000,1000.0000,1484.0000,-152.0000,-109.0000,14.0000,1248.0000,-1421.0000,7919.0000,0.3969,0.6773,0.3691,-0.4975,152.6300,-45.7800,-67.5200,10.8700,-5.7500,16.8500,0.0000,0.0000,-0.0000,1962.0000,1055.0000,1500.0000,2000.0000
193979.6250,2.0000,2000.0000,1000.0000,1484.0000,-148.0000,-107.0000,26.0000,1172.0000,-1299.0000,7258.0000,0.4198,0.6611,0.3721,-0.4983,152.6300,-45.7800,-67.5200,10.8700,-5.7500,16.8500,0.0000,0.0000,-0.0000,1962.0000,1055.0000,1500.0000,2000.0000
193996.5660,2.0000,2000.0000,1000.0000,1484.0000,-89.0000,-124.0000,31.0000,979.0000,-1017.0000,6478.0000,0.4402,0.6463,0.3713,-0.5006,152.9600,-45.9500,-67.2100,10.8000,-5.3000,17.2700,0.0000,0.0000,-0.0000,1962.0000,1055.0000,1500.0000,2000.0000
194013.6980,2.0000,2000.0000,1000.0000,1484.0000,-17.0000,-139.0000,25.0000,989.0000,-1029.0000,6419.0000,0.4550,0.6341,0.3640,-0.5083,153.2800,-46.1000,-66.9000,10.7900,-4.9200,17.6100,0.0000,0.0000,-0.0000,1962.0000,1055.0000,1500.0000,2000.0000
194030.3150,2.0000,2000.0000,1000.0000,1484.0000,46.0000,-154.0000,15.0000,886.0000,-920.0000,6748.0000,0.4632,0.6247,0.3517,-0.5210,153.5900,-46.2500,-66.5800,10.7900,-4.5600,17.9200,0.0000,0.0000,-0.0000,1962.0000,1055.0000,1500.0000,2000.0000
194047.1140,2.0000,2000.0000,1099.0000,2000.0000,97.0000,-163.0000,3.0000,986.0000,-1034.0000,7070.0000,0.4659,0.6174,0.3351,-0.5380,153.8900,-46.3800,-66.2500,10.7600,-4.1700,18.1900,0.0000,0.0000,-0.0000,1415.0000,1016.0000,1500.0000,2000.0000
194064.1400,2.0000,2000.0000,1100.0000,2000.0000,124.0000,-176.0000,-3.0000,954.0000,-927.0000,8351.0000,0.4645,0.6111,0.3152,-0.5581,154.2000,-46.5100,-65.9200,10.6700,-3.6500,18.4400,0.0000,0.0000,-0.0000,1415.0000,1016.0000,1500.0000,2000.0000
194081.2020,2.0000,2000.0000,1100.0000,2000.0000,117.0000,-169.0000,-3.0000,1053.0000,-847.0000,9668.0000,0.4617,0.6045,0.2943,-0.5786,154.2000,-46.5100,-65.9200,10.6700,-3.6500,18.4400,0.0000,0.0000,-0.0000,1415.0000,1016.0000,1500.0000,2000.0000
194098.3830,2.0000,2000.0000,1100.0000,2000.0000,73.0000,-178.0000,3.0000,1135.0000,-683.0000,11149.0000,0.4616,0.5953,0.2753,-0.5973,154.5100,-46.6200,-65.5800,10.4700,-2.9700,18.6400,0.0000,0.0000,-0.0000,1415.0000,1016.0000,1500.0000,2000.0000
194115.2470,2.0000,2000.0000,1100.0000,2000.0000,18.0000,-175.0000,6.0000,1202.0000,-752.0000,12685.0000,0.4661,0.5823,0.2594,-0.6135,154.8200,-46.7200,-65.2400,10.2100,-2.2000,18.7800,0.0000,0.0000,-0.0000,1415.0000,1016.0000,1500.0000,2000.0000
194132.1250,2.0000,2000.0000,1000.0000,1508.0000,-15.0000,-169.0000,3.0000,1208.0000,-784.0000,13566.0000,0.4742,0.5662,0.2484,-0.6268,155.1100,-46.8000,-64.9000,9.8300,-1.3300,18.8300,0.0000,0.0000,-0.0000,1946.0000,1048.0000,1500.0000,2000.0000
194149.1060,2.0000,2000.0000,1000.0000,1507.0000,-30.0000,-157.0000,-3.0000,1120.0000,-624.0000,13382.0000,0.4833,0.5487,0.2399,-0.6387,155.3800,-46.8600,-64.5600,9.4300,-0.4500,18.7900,0.0000,0.0000,-0.0000,1946.0000,1048.0000,1500.0000,2000.0000
194165.8680,2.0000,2000.0000,1000.0000,1507.0000,-39.0000,-151.0000,-9.0000,987.0000,-610.0000,12820.0000,0.4921,0.5308,0.2337,-0.6492,155.6600,-46.9000,-64.2200,9.0900,0.4300,18.6700,0.0000,0.0000,-0.0000,1946.0000,1048.0000,1500.0000,2000.0000
194182.8220,2.0000,2000.0000,1000.0000,1507.0000,-28.0000,-144.0000,-20.0000,984.0000,-630.0000,12740.0000,0.4998,0.5129,0.2282,-0.6596,155.6600,-46.9000,-64.2200,9.0900,0.4300,18.6700,0.0000,0.0000,-0.0000,1946.0000,1048.0000,1500.0000,2000.0000
194199.8210,2.0000,2000.0000,1000.0000,1507.0000,4.0000,-133.0000,-36.0000,1092.0000,-638.0000,12994.0000,0.5041,0.4968,0.2222,-0.6706,155.9300,-46.9300,-63.8800,8.7800,1.2700,18.4800,0.0000,0.0000,-0.0000,1946.0000,1048.0000,1500.0000,2000.0000
194216.7010,2.0000,2000.0000,1000.0000,1507.0000,32.0000,-122.0000,-52.0000,1098.0000,-456.0000,12992.0000,0.5036,0.4836,0.2146,-0.6829,156.1900,-46.9300,-63.5400,8.4700,2.0900,18.2400,0.0000,0.0000,-0.0000,1946.0000,1048.0000,1500.0000,2000.0000
194233.6920,2.0000,2000.0000,1000.0000,1679.0000,65.0000,-106.0000,-66.0000,1074.0000,-426.0000,12722.0000,0.4988,0.4735,0.2064,-0.6960,156.4300,-46.9200,-63.2200,8.1800,2.8400,17.9400,0.0000,0.0000,-0.0000,1721.0000,1026.0000,1500.0000,2000.0000
194250.7220,2.0000,2000.0000,1000.0000,1755.0000,99.0000,-92.0000,-78.0000,1108.0000,-845.0000,12192.0000,0.4897,0.4668,0.1964,-0.7098,156.6600,-46.8900,-62.9000,7.8800,3.5100,17.6200,0.0000,0.0000,-0.0000,1721.0000,1026.0000,1500.0000,2000.0000
194267.5480,2.0000,2000.0000,1000.0000,1755.0000,117.0000,-91.0000,-84.0000,959.0000,-917.0000,11093.0000,0.4775,0.4624,0.1849,-0.7238,156.9000,-46.8600,-62.5800,7.5500,4.1300,17.3200,0.0000,0.0000,-0.0000,1721.0000,1026.0000,1500.0000,2000.0000
194284.4130,2.0000,2000.0000,1000.0000,1755.0000,114.0000,-110.0000,-88.0000,662.0000,-756.0000,9435.0000,0.4643,0.4573,0.1723,-0.7387,156.9000,-46.8600,-62.5800,7.5500,4.1300,17.3200,0.0000,0.0000,-0.0000,1721.0000,1026.0000,1500.0000,2000.0000
194301.4140,2.0000,2000.0000,1000.0000,1755.0000,108.0000,-138.0000,-82.0000,509.0000,-795.0000,8871.0000,0.4519,0.4488,0.1581,-0.7546,157.1300,-46.8100,-62.2700,7.3000,4.5600,17.0500,0.0000,0.0000,-0.0000,1721.0000,1026.0000,1500.0000,2000.0000
194318.1500,2.0000,2000.0000,1000.0000,1755.0000,101.0000,-158.0000,-78.0000,510.0000,-1031.0000,9400.0000,0.4408,0.4369,0.1431,-0.7709,157.3600,-46.7500,-61.9600,7.0900,4.8400,16.8000,0.0000,0.0000,-0.0000,1721.0000,1026.0000,1500.0000,2000.0000
194335.0890,2.0000,2000.0000,1000.0000,1517.0000,102.0000,-178.0000,-69.0000,673.0000,-1322.0000,10588.0000,0.4306,0.4221,0.1258,-0.7877,157.5800,-46.7000,-61.6600,6.8300,5.0800,16.5000,0.0000,0.0000,-0.0000,1943.0000,1047.0000,1500.0000,2000.0000
194351.9390,2.0000,2000.0000,1000.0000,1511.0000,98.0000,-190.0000,-59.0000,859.0000,-1542.0000,12012.0000,0.4217,0.4054,0.1072,-0.8040,157.7800,-46.6400,-61.3700,6.4700,5.3300,16.1000,0.0000,0.0000,-0.0000,1943.0000,1047.0000,1500.0000,2000.0000
194368.7550,2.0000,2000.0000,1000.0000,1511.0000,102.0000,-191.0000,-48.0000,1097.0000,-1622.0000,13384.0000,0.4139,0.3877,0.0876,-0.8189,157.9900,-46.5600,-61.0800,5.9000,5.6900,15.5700,0.0000,0.0000,-0.0000,1943.0000,1047.0000,1500.0000,2000.0000
194385.5890,2.0000,2000.0000,1000.0000,1511.0000,117.0000,-172.0000,-40.0000,1377.0000,-1790.0000,14745.0000,0.4064,0.3714,0.0665,-0.8322,157.9900,-46.5600,-61.0800,5.9000,5.6900,15.5700,0.0000,0.0000,-0.0000,1943.0000,1047.0000,1500.0000,2000.0000
194402.4870,2.0000,2000.0000,1000.0000,1511.0000,137.0000,-143.0000,-37.0000,1323.0000,-1737.0000,15418.0000,0.3977,0.3589,0.0441,-0.8432,158.1700,-46.4900,-60.8000,5.2400,6.0300,14.9100,0.0000,0.0000,-0.0000,1943.0000,1047.0000,1500.0000,2000.0000
194419.3800,2.0000,2000.0000,1000.0000,1511.0000,155.0000,-108.0000,-36.0000,1090.0000,-1559.0000,15500.0000,0.3875,0.3515,0.0212,-0.8520,158.3500,-46.4100,-60.5400,4.5300,6.3200,14.1400,0.0000,0.0000,-0.0000,1943.0000,1047.0000,1500.0000,2000.0000
194436.1850,2.0000,2000.0000,1000.0000,1528.0000,169.0000,-60.0000,-39.0000,928.0000,-1593.0000,14321.0000,0.3760,0.3499,-0.0014,-0.8580,158.5000,-46.3200,-60.2900,3.8400,6.5100,13.3100,0.0000,0.0000,-0.0000,1924.0000,1049.0000,1500.0000,2000.0000
194452.8990,2.0000,2000.0000,1000.0000,1528.0000,173.0000,-27.0000,-38.0000,738.0000,-1625.0000,12624.0000,0.3638,0.3534,-0.0231,-0.8615,158.6300,-46.2300,-60.0600,3.2400,6.5500,12.5700,0.0000,0.0000,-0.0000,1924.0000,1049.0000,1500.0000,2000.0000
194469.7120,2.0000,2000.0000,1000.0000,1528.0000,168.0000,4.0000,-38.0000,436.0000,-1348.0000,10508.0000,0.3512,0.3607,-0.0430,-0.8630,158.7600,-46.1400,-59.8400,2.6500,6.5700,11.9900,0.0000,0.0000,-0.0000,1924.0000,1049.0000,1500.0000,2000.0000
194486.4900,2.0000,2000.0000,1000.0000,1528.0000,170.0000,9.0000,-33.0000,212.0000,-1181.0000,8177.0000,0.3389,0.3701,-0.0618,-0.8627,158.7600,-46.1400,-59.8400,2.6500,6.5700,11.9900,0.0000,0.0000,-0.0000,1924.0000,1049.0000,1500.0000,2000.0000
194503.2060,2.0000,2000.0000,1000.0000,1528.0000,175.0000,4.0000,-29.0000,142.0000,-973.0000,5551.0000,0.3267,0.3799,-0.0812,-0.8616,158.8900,-46.0600,-59.6300,2.2700,6.5000,11.5900,0.0000,0.0000,-0.0000,1924.0000,1049.0000,1500.0000,2000.0000
194519.9150,2.0000,2000.0000,1000.0000,1528.0000,180.0000,-26.0000,-29.0000,40.0000,-768.0000,3793.0000,0.3140,0.3873,-0.1017,-0.8608,159.0200,-45.9800,-59.4300,2.1200,6.3500,11.3900,0.0000,0.0000,-0.0000,1924.0000,1049.0000,1500.0000,2000.0000
194536.6520,2.0000,2000.0000,1000.0000,1809.0000,191.0000,-62.0000,-31.0000,-16.0000,-843.0000,3466.0000,0.3000,0.3905,-0.1247,-0.8613,159.1400,-45.9100,-59.2300,2.1500,6.1700,11.3300,0.0000,0.0000,-0.0000,1631.0000,1062.0000,1500.0000,2000.0000
194553.6270,2.0000,2000.0000,1000.0000,1809.0000,202.0000,-96.0000,-33.0000,-65.0000,-995.0000,4140.0000,0.2841,0.3896,-0.1509,-0.8630,159.2600,-45.8400,-59.0400,2.1800,5.9600,11.3000,0.0000,0.0000,-0.0000,1631.0000,1062.0000,1500.0000,2000.0000
194570.4110,2.0000,2000.0000,1000.0000,1809.0000,210.0000,-128.0000,-34.0000,-73.0000,-984.0000,5222.0000,0.2667,0.3851,-0.1793,-0.8651,159.3700,-45.7400,-58.8300,1.9400,6.0800,11.2500,0.0000,0.0000,-0.0000,1631.0000,1062.0000,1500.0000,2000.0000
194587.0570,2.0000,2000.0000,1000.0000,1809.0000,181.0000,-170.0000,-32.0000,69.0000,-939.0000,6606.0000,0.2488,0.3749,-0.2072,-0.8687,159.3700,-45.7400,-58.8300,1.9400,6.0800,11.2500,0.0000,0.0000,-0.0000,1631.0000,1062.0000,1500.0000,2000.0000
194604.0420,2.0000,2000.0000,1000.0000,1809.0000,135.0000,-203.0000,-25.0000,244.0000,-951.0000,8477.0000,0.2318,0.3575,-0.2320,-0.8744,159.4700,-45.6400,-58.6200,1.5900,6.1600,11.1300,0.0000,0.0000,-0.0000,1631.0000,1062.0000,1500.0000,2000.0000
194620.6620,2.0000,2000.0000,1000.0000,1809.0000,102.0000,-220.0000,-20.0000,486.0000,-1077.0000,10849.0000,0.2168,0.3353,-0.2523,-0.8814,159.5600,-45.5400,-58.4200,1.1200,6.1500,10.8900,0.0000,0.0000,-0.0000,1631.0000,1062.0000,1500.0000,2000.0000
194637.4480,2.0000,2000.0000,1000.0000,1511.0000,75.0000,-224.0000,-16.0000,763.0000,-1078.0000,12997.0000,0.2032,0.3101,-0.2693,-0.8888,159.6400,-45.4500,-58.2300,0.5000,6.0200,10.5100,0.0000,0.0000,-0.0000,1919.0000,1072.0000,1500.0000,2000.0000
194653.9320,2.0000,2000.0000,1000.0000,1510.0000,54.0000,-214.0000,-13.0000,1025.0000,-1130.0000,14785.0000,0.1916,0.2848,-0.2823,-0.8958,159.7000,-45.3600,-58.0400,-0.2000,5.7700,9.9700,0.0000,0.0000,-0.0000,1919.0000,1072.0000,1500.0000,2000.0000
194670.7010,2.0000,2000.0000,1000.0000,1510.0000,40.0000,-192.0000,-16.0000,1146.0000,-1196.0000,15826.0000,0.1810,0.2604,-0.2927,-0.9021,159.7000,-45.3600,-58.0400,-0.2000,5.7700,9.9700,0.0000,0.0000,-0.0000,1919.0000,1072.0000,1500.0000,2000.0000
194687.5090,2.0000,2000.0000,1000.0000,1510.0000,51.0000,-152.0000,-28.0000,1114.0000,-1147.0000,16517.0000,0.1707,0.2402,-0.3017,-0.9067,159.7300,-45.2400,-57.8500,-1.1700,5.5200,9.3100,0.0000,0.0000,-0.0000,1919.0000,1072.0000,1500.0000,2000.0000
194704.5280,2.0000,2000.0000,1000.0000,1510.0000,77.0000,-101.0000,-40.0000,1037.0000,-1170.0000,16249.0000,0.1597,0.2268,-0.3116,-0.9088,159.7400,-45.1400,-57.6800,-2.0900,5.1700,8.5400,0.0000,0.0000,-0.0000,1919.0000,1072.0000,1500.0000,2000.0000
194721.1660,2.0000,2000.0000,1000.0000,1510.0000,111.0000,-55.0000,-54.0000,913.0000,-1136.0000,14419.0000,0.1483,0.2213,-0.3238,-0.9079,159.7300,-45.0400,-57.5100,-2.9000,4.7700,7.7500,0.0000,0.0000,-0.0000,1919.0000,1072.0000,1500.0000,2000.0000
194738.0600,2.0000,2000.0000,1000.0000,1697.0000,140.0000,-33.0000,-68.0000,704.0000,-980.0000,12545.0000,0.1350,0.2213,-0.3395,-0.9042,159.7000,-44.9500,-57.3700,-3.5400,4.4000,7.1000,0.0000,0.0000,-0.0000,1767.0000,1037.0000,1500.0000,2000.0000
194754.8850,2.0000,2000.0000,1000.0000,1697.0000,149.0000,-16.0000,-76.0000,519.0000,-900.0000,10610.0000,0.1208,0.2252,-0.3568,-0.8985,159.6600,-44.8700,-57.2300,-4.0100,4.1300,6.6300,0.0000,0.0000,-0.0000,1767.0000,1037.0000,1500.0000,2000.0000
194771.9750,2.0000,2000.0000,1000.0000,1697.0000,148.0000,-31.0000,-69.0000,466.0000,-925.0000,8343.0000,0.1062,0.2294,-0.3743,-0.8922,159.6600,-44.8700,-57.2300,-4.0100,4.1300,6.6300,0.0000,0.0000,-0.0000,1767.0000,1037.0000,1500.0000,2000.0000
194788.7780,2.0000,2000.0000,1000.0000,1697.0000,141.0000,-64.0000,-64.0000,191.0000,-1130.0000,6331.0000,0.0914,0.2297,-0.3912,-0.8865,159.6000,-44.7700,-57.1000,-4.5000,4.0400,6.3400,0.0000,0.0000,-0.0000,1767.0000,1037.0000,1500.0000,2000.0000
194805.6130,2.0000,2000.0000,1000.0000,1697.0000,139.0000,-108.0000,-61.0000,135.0000,-1062.0000,6548.0000,0.0748,0.2244,-0.4080,-0.8818,159.5400,-44.6600,-56.9600,-4.8000,4.1000,6.2600,0.0000,0.0000,-0.0000,1767.0000,1037.0000,1500.0000,2000.0000
194822.4220,2.0000,2000.0000,1000.0000,1697.0000,134.0000,-143.0000,-55.0000,228.0000,-1156.0000,8004.0000,0.0566,0.2137,-0.4245,-0.8780,159.4700,-44.5600,-56.8300,-5.0300,4.1400,6.2200,0.0000,0.0000,-0.0000,1767.0000,1037.0000,1500.0000,2000.0000
194839.0570,2.0000,2000.0000,1471.0000,2000.0000,127.0000,-167.0000,-46.0000,414.0000,-1350.0000,9572.0000,0.0379,0.1985,-0.4401,-0.8749,159.4000,-44.4600,-56.6900,-5.3000,4.0100,6.1300,0.0000,0.0000,-0.0000,1058.0000,1029.0000,1500.0000,2000.0000
194855.6840,2.0000,2000.0000,1471.0000,2000.0000,123.0000,-181.0000,-40.0000,623.0000,-1435.0000,10905.0000,0.0193,0.1804,-0.4552,-0.8717,159.3200,-44.3700,-56.5600,-5.6000,3.7000,5.9800,0.0000,0.0000,-0.0000,1058.0000,1029.0000,1500.0000,2000.0000
194872.4160,2.0000,2000.0000,1471.0000,2000.0000,107.0000,-191.0000,-29.0000,790.0000,-1335.0000,11918.0000,0.0008,0.1599,-0.4693,-0.8685,159.3200,-44.3700,-56.5600,-5.6000,3.7000,5.9800,0.0000,0.0000,-0.0000,1058.0000,1029.0000,1500.0000,2000.0000
194889.1110,2.0000,2000.0000,1471.0000,2000.0000,54.0000,-188.0000,-12.0000,907.0000,-1256.0000,13137.0000,-0.0152,0.1381,-0.4789,-0.8668,159.2200,-44.2500,-56.4300,-6.0300,3.2900,5.7900,0.0000,0.0000,-0.0000,1058.0000,1029.0000,1500.0000,2000.0000
194906.0490,2.0000,2000.0000,1471.0000,2000.0000,-22.0000,-177.0000,9.0000,1036.0000,-1270.0000,14046.0000,-0.0272,0.1154,-0.4799,-0.8693,159.1100,-44.1500,-56.2900,-6.4200,2.7500,5.5400,0.0000,0.0000,-0.0000,1058.0000,1029.0000,1500.0000,2000.0000
194922.9280,2.0000,2000.0000,1471.0000,2000.0000,-87.0000,-160.0000,25.0000,1155.0000,-1243.0000,14629.0000,-0.0348,0.0933,-0.4722,-0.8759,159.0000,-44.0600,-56.1700,-6.7300,2.1300,5.2200,0.0000,0.0000,-0.0000,1058.0000,1029.0000,1500.0000,2000.0000
194939.5350,2.0000,2000.0000,1000.0000,1480.0000,-138.0000,-137.0000,36.0000,1162.0000,-1125.0000,14826.0000,-0.0383,0.0734,-0.4570,-0.8856,158.8800,-43.9900,-56.0500,-7.0000,1.4700,4.8200,0.0000,0.0000,-0.0000,1940.0000,1081.0000,1500.0000,2000.0000
194956.5890,2.0000,2000.0000,1000.0000,1480.0000,-168.0000,-118.0000,41.0000,1114.0000,-979.0000,14316.0000,-0.0390,0.0555,-0.4358,-0.8975,158.7300,-43.9100,-55.9300,-7.3800,0.8000,4.3200,0.0000,0.0000,-0.0000,1940.0000,1081.0000,1500.0000,2000.0000
194973.1660,2.0000,2000.0000,1000.0000,1480.0000,-167.0000,-107.0000,38.0000,961.0000,-784.0000,13153.0000,-0.0387,0.0399,-0.4130,-0.9090,158.7300,-43.9100,-55.9300,-7.3800,0.8000,4.3200,0.0000,0.0000,-0.0000,1940.0000,1081.0000,1500.0000,2000.0000
194989.8930,2.0000,2000.0000,1000.0000,1480.0000,-119.0000,-110.0000,24.0000,874.0000,-687.0000,11996.0000,-0.0398,0.0247,-0.3932,-0.9183,158.5800,-43.8500,-55.8200,-7.6800,0.2700,3.7800,0.0000,0.0000,-0.0000,1940.0000,1081.0000,1500.0000,2000.0000
195006.7140,2.0000,2000.0000,1000.0000,1480.0000,-56.0000,-111.0000,2.0000,796.0000,-532.0000,11470.0000,-0.0434,0.0097,-0.3807,-0.9236,158.4200,-43.7900,-55.7200,-7.9100,-0.0700,3.2600,0.0000,0.0000,-0.0000,1940.0000,1081.0000,1500.0000,2000.0000
195023.5390,2.0000,2000.0000,1000.0000,1480.0000,10.0000,-113.0000,-23.0000,709.0000,-330.0000,11144.0000,-0.0501,-0.0044,-0.3767,-0.9250,158.2700,-43.7400,-55.6400,-8.0800,-0.3000,2.7500,0.0000,0.0000,-0.0000,1940.0000,1081.0000,1500.0000,2000.0000
195040.5270,2.0000,2000.0000,1355.0000,2000.0000,66.0000,-114.0000,-46.0000,639.0000,-248.0000,10872.0000,-0.0600,-0.0179,-0.3814,-0.9223,158.1100,-43.7000,-55.5600,-8.2100,-0.4800,2.2400,0.0000,0.0000,-0.0000,1172.0000,1027.0000,1500.0000,2000.0000
195057.2120,2.0000,2000.0000,1355.0000,2000.0000,109.0000,-110.0000,-69.0000,671.0000,-325.0000,11096.0000,-0.0728,-0.0301,-0.3925,-0.9164,157.9200,-43.6400,-55.4900,-8.4100,-0.7200,1.7500,0.0000,0.0000,-0.0000,1172.0000,1027.0000,1500.0000,2000.0000
195073.9130,2.0000,2000.0000,1355.0000,2000.0000,111.0000,-106.0000,-80.0000,732.0000,-560.0000,11050.0000,-0.0871,-0.0408,-0.4071,-0.9083,157.9200,-43.6400,-55.4900,-8.4100,-0.7200,1.7500,0.0000,0.0000,-0.0000,1172.0000,1027.0000,1500.0000,2000.0000
195090.5590,2.0000,2000.0000,1355.0000,2000.0000,50.0000,-110.0000,-74.0000,746.0000,-582.0000,10742.0000,-0.1018,-0.0506,-0.4171,-0.9017,157.7400,-43.5900,-55.4300,-8.5600,-0.9800,1.2900,0.0000,0.0000,-0.0000,1172.0000,1027.0000,1500.0000,2000.0000
195107.7230,2.0000,2000.0000,1355.0000,2000.0000,-17.0000,-123.0000,-62.0000,668.0000,-762.0000,10157.0000,-0.1169,-0.0619,-0.4178,-0.8989,157.5500,-43.5400,-55.3800,-8.6600,-1.2400,0.8900,0.0000,0.0000,-0.0000,1172.0000,1027.0000,1500.0000,2000.0000
195124.4220,2.0000,2000.0000,1355.0000,2000.0000,-68.0000,-141.0000,-47.0000,648.0000,-1047.0000,10179.0000,-0.1315,-0.0746,-0.4100,-0.8995,157.3700,-43.5000,-55.3300,-8.7100,-1.4800,0.5500,0.0000,0.0000,-0.0000,1172.0000,1027.0000,1500.0000,2000.0000
195141.4330,2.0000,2000.0000,1358.0000,2000.0000,-96.0000,-154.0000,-33.0000,637.0000,-1063.0000,10491.0000,-0.1458,-0.0900,-0.3963,-0.9020,157.1900,-43.4700,-55.3000,-8.7100,-1.7300,0.2300,0.0000,0.0000,-0.0000,1174.0000,1032.0000,1500.0000,2000.0000
195158.4950,2.0000,2000.0000,1358.0000,2000.0000,-113.0000,-160.0000,-20.0000,799.0000,-1206.0000,11330.0000,-0.1594,-0.1070,-0.3790,-0.9053,156.9900,-43.4400,-55.2600,-8.7200,-2.1100,-0.1300,0.0000,0.0000,-0.0000,1174.0000,1032.0000,1500.0000,2000.0000
195175.0620,2.0000,2000.0000,1358.0000,2000.0000,-118.0000,-163.0000,-7.0000,928.0000,-1295.0000,12033.0000,-0.1711,-0.1246,-0.3602,-0.9086,156.9900,-43.4400,-55.2600,-8.7200,-2.1100,-0.1300,0.0000,0.0000,-0.0000,1174.0000,1032.0000,1500.0000,2000.0000
195191.9190,2.0000,2000.0000,1358.0000,2000.0000,-115.0000,-160.0000,3.0000,1051.0000,-1326.0000,12703.0000,-0.1815,-0.1430,-0.3404,-0.9115,156.7900,-43.4100,-55.2300,-8.6700,-2.5200,-0.5900,0.0000,0.0000,-0.0000,1174.0000,1032.0000,1500.0000,2000.0000
195208.8560,2.0000,2000.0000,1358.0000,2000.0000,-111.0000,-154.0000,11.0000,1063.0000,-1233.0000,13100.0000,-0.1901,-0.1612,-0.3207,-0.9138,156.5900,-43.4000,-55.2100,-8.5500,-2.9100,-1.1400,0.0000,0.0000,-0.0000,1174.0000,1032.0000,1500.0000,2000.0000
195225.7040,2.0000,2000.0000,1358.0000,2000.0000,-114.0000,-149.0000,19.0000,1058.0000,-998.0000,12992.0000,-0.1972,-0.1789,-0.3011,-0.9157,156.4000,-43.3900,-55.1900,-8.3600,-3.2400,-1.7500,0.0000,0.0000,-0.0000,1174.0000,1032.0000,1500.0000,2000.0000
195242.5600,2.0000,2000.0000,1000.0000,1503.0000,-123.0000,-142.0000,24.0000,1156.0000,-969.0000,13136.0000,-0.2034,-0.1961,-0.2804,-0.9174,156.2100,-43.3900,-55.1900,-8.1400,-3.5200,-2.4100,0.0000,0.0000,-0.0000,1944.0000,1054.0000,1500.0000,2000.0000
195259.4580,2.0000,2000.0000,1000.0000,1503.0000,-126.0000,-138.0000,26.0000,1241.0000,-1007.0000,13279.0000,-0.2093,-0.2122,-0.2583,-0.9189,156.0100,-43.4000,-55.2000,-7.8800,-3.9700,-3.1100,0.0000,0.0000,-0.0000,1944.0000,1054.0000,1500.0000,2000.0000
195276.3420,2.0000,2000.0000,1000.0000,1503.0000,-106.0000,-135.0000,20.0000,1211.0000,-880.0000,12944.0000,-0.2149,-0.2279,-0.2373,-0.9195,156.0100,-43.4000,-55.2000,-7.8800,-3.9700,-3.1100,0.0000,0.0000,-0.0000,1944.0000,1054.0000,1500.0000,2000.0000
195293.1290,2.0000,2000.0000,1000.0000,1503.0000,-59.0000,-129.0000,8.0000,1162.0000,-697.0000,12910.0000,-0.2205,-0.2436,-0.2212,-0.9182,155.8200,-43.4200,-55.2300,-7.6000,-4.3300,-3.8200,0.0000,0.0000,-0.0000,1944.0000,1054.0000,1500.0000,2000.0000
195310.2030,2.0000,2000.0000,1000.0000,1503.0000,-3.0000,-119.0000,-10.0000,1181.0000,-860.0000,12731.0000,-0.2257,-0.2594,-0.2129,-0.9146,155.6400,-43.4500,-55.2600,-7.2900,-4.6000,-4.5500,0.0000,0.0000,-0.0000,1944.0000,1054.0000,1500.0000,2000.0000
195327.1710,2.0000,2000.0000,1000.0000,1503.0000,46.0000,-113.0000,-25.0000,1103.0000,-740.0000,12172.0000,-0.2306,-0.2754,-0.2129,-0.9087,155.4700,-43.4800,-55.3200,-6.9500,-4.8200,-5.2600,0.0000,0.0000,-0.0000,1944.0000,1054.0000,1500.0000,2000.0000
195344.0890,2.0000,2000.0000,1525.0000,1761.0000,78.0000,-104.0000,-38.0000,1124.0000,-782.0000,11801.0000,-0.2356,-0.2910,-0.2191,-0.9010,155.3100,-43.5200,-55.3800,-6.6100,-5.0200,-5.8900,0.0000,0.0000,-0.0000,1356.0000,1381.0000,1500.0000,2000.0000
195361.0280,2.0000,2000.0000,1525.0000,1761.0000,94.0000,-94.0000,-47.0000,1016.0000,-780.0000,11212.0000,-0.2406,-0.3058,-0.2292,-0.8922,155.1400,-43.5700,-55.4600,-6.2500,-5.3500,-6.4500,0.0000,0.0000,-0.0000,1356.0000,1381.0000,1500.0000,2000.0000
195377.9460,2.0000,2000.0000,1525.0000,1761.0000,66.0000,-91.0000,-51.0000,961.0000,-780.0000,10477.0000,-0.2466,-0.3191,-0.2391,-0.8833,155.1400,-43.5700,-55.4600,-6.2500,-5.3500,-6.4500,0.0000,0.0000,-0.0000,1356.0000,1381.0000,1500.0000,2000.0000
195394.9530,2.0000,2000.0000,1525.0000,1761.0000,12.0000,-96.0000,-45.0000,958.0000,-760.0000,9990.0000,-0.2542,-0.3309,-0.2432,-0.8756,154.9700,-43.6300,-55.5400,-5.9000,-5.6400,-6.9200,0.0000,0.0000,-0.0000,1356.0000,1381.0000,1500.0000,2000.0000
195411.8890,2.0000,2000.0000,1525.0000,1761.0000,-40.0000,-92.0000,-35.0000,1073.0000,-972.0000,9944.0000,-0.2635,-0.3411,-0.2394,-0.8700,154.8200,-43.6900,-55.6300,-5.5900,-5.9000,-7.3000,0.0000,0.0000,-0.0000,1356.0000,1381.0000,1500.0000,2000.0000
195428.8510,2.0000,2000.0000,1829.0000,1845.0000,-87.0000,-80.0000,-28.0000,988.0000,-855.0000,9773.0000,-0.2738,-0.3483,-0.2293,-0.8667,154.6700,-43.7500,-55.7300,-5.2800,-6.1400,-7.6700,0.0000,0.0000,-0.0000,1162.0000,1491.0000,1500.0000,2000.0000
195445.9390,2.0000,2000.0000,1830.0000,1846.0000,-122.0000,-68.0000,-21.0000,968.0000,-864.0000,9708.0000,-0.2850,-0.3527,-0.2138,-0.8653,154.5300,-43.8200,-55.8300,-4.9700,-6.3400,-8.0100,0.0000,0.0000,-0.0000,1162.0000,1491.0000,1500.0000,2000.0000
195462.5740,2.0000,2000.0000,1830.0000,1846.0000,-174.0000,-39.0000,-12.0000,860.0000,-913.0000,9659.0000,-0.2964,-0.3530,-0.1938,-0.8660,154.3800,-43.9100,-55.9300,-4.6500,-6.5900,-8.3600,0.0000,0.0000,-0.0000,1162.0000,1491.0000,1500.0000,2000.0000
195479.4110,2.0000,2000.0000,1830.0000,1846.0000,-233.0000,0.0000,-1.0000,805.0000,-853.0000,9502.0000,-0.3085,-0.3464,-0.1672,-0.8700,154.3800,-43.9100,-55.9300,-4.6500,-6.5900,-8.3600,0.0000,0.0000,-0.0000,1162.0000,1491.0000,1500.0000,2000.0000
195496.2590,2.0000,2000.0000,1830.0000,1846.0000,-299.0000,41.0000,10.0000,687.0000,-692.0000,8621.0000,-0.3207,-0.3317,-0.1339,-0.8770,154.2400,-44.0000,-56.0400,-4.3500,-6.7800,-8.7300,0.0000,0.0000,-0.0000,1162.0000,1491.0000,1500.0000,2000.0000
195513.2860,2.0000,2000.0000,1830.0000,1846.0000,-352.0000,76.0000,19.0000,535.0000,-514.0000,6912.0000,-0.3337,-0.3081,-0.0928,-0.8861,154.1100,-44.0900,-56.1600,-4.1400,-6.8800,-9.1000,0.0000,0.0000,-0.0000,1162.0000,1491.0000,1500.0000,2000.0000
195529.9170,2.0000,2000.0000,1830.0000,1846.0000,-383.0000,105.0000,26.0000,507.0000,-397.0000,4740.0000,-0.3456,-0.2782,-0.0488,-0.8949,153.9800,-44.1800,-56.2900,-4.1200,-6.8900,-9.3800,0.0000,0.0000,-0.0000,1162.0000,1491.0000,1500.0000,2000.0000
195546.6210,2.0000,2000.0000,1065.0000,1000.0000,-412.0000,126.0000,32.0000,563.0000,-88.0000,2575.0000,-0.3569,-0.2426,-0.0012,-0.9021,153.8400,-44.2600,-56.4100,-4.3100,-6.8900,-9.5100,0.0000,0.0000,-0.0000,1989.0000,1555.0000,1500.0000,2000.0000
195563.4920,2.0000,2000.0000,1065.0000,1000.0000,-421.0000,141.0000,38.0000,397.0000,212.0000,333.0000,-0.3669,-0.2023,0.0489,-0.9067,153.6700,-44.3700,-56.5300,-4.6500,-7.0200,-9.4400,0.0000,0.0000,-0.0000,1989.0000,1555.0000,1500.0000,2000.0000
195580.6240,2.0000,2000.0000,1065.0000,1000.0000,-374.0000,143.0000,37.0000,361.0000,279.0000,-1775.0000,-0.3749,-0.1602,0.0968,-0.9080,153.6700,-44.3700,-56.5300,-4.6500,-7.0200,-9.4400,0.0000,0.0000,-0.0000,1989.0000,1555.0000,1500.0000,2000.0000
195597.4200,2.0000,2000.0000,1065.0000,1000.0000,-272.0000,131.0000,22.0000,672.0000,285.0000,-3462.0000,-0.3804,-0.1233,0.1331,-0.9069,153.4900,-44.4600,-56.6400,-5.1100,-7.1800,-9.1200,0.0000,0.0000,-0.0000,1989.0000,1555.0000,1500.0000,2000.0000
195614.5780,2.0000,2000.0000,1065.0000,1000.0000,-115.0000,104.0000,-4.0000,434.0000,394.0000,-4522.0000,-0.3852,-0.0957,0.1531,-0.9050,153.3100,-44.5600,-56.7400,-5.5900,-7.4200,-8.6500,0.0000,0.0000,-0.0000,1989.0000,1555.0000,1500.0000,2000.0000
195631.4670,2.0000,2000.0000,1000.0000,1310.0000,72.0000,94.0000,-32.0000,406.0000,327.0000,-4529.0000,-0.3908,-0.0817,0.1496,-0.9046,153.1200,-44.6600,-56.8300,-6.0300,-7.6700,-8.0600,0.0000,0.0000,-0.0000,1882.0000,1307.0000,1500.0000,2000.0000
195648.4310,2.0000,2000.0000,1000.0000,1311.0000,238.0000,92.0000,-60.0000,296.0000,254.0000,-3876.0000,-0.3975,-0.0798,0.1223,-0.9059,152.9300,-44.7700,-56.9300,-6.3700,-7.9300,-7.5300,0.0000,0.0000,-0.0000,1882.0000,1307.0000,1500.0000,2000.0000
195664.9820,2.0000,2000.0000,1000.0000,1311.0000,362.0000,98.0000,-75.0000,260.0000,134.0000,-3840.0000,-0.4047,-0.0854,0.0769,-0.9072,152.7300,-44.9100,-57.0300,-6.5800,-8.2800,-7.0500,0.0000,0.0000,-0.0000,1882.0000,1307.0000,1500.0000,2000.0000
195681.8000,2.0000,2000.0000,1000.0000,1311.0000,441.0000,70.0000,-90.0000,55.0000,274.0000,-5053.0000,-0.4110,-0.0990,0.0156,-0.9061,152.7300,-44.9100,-57.0300,-6.5800,-8.2800,-7.0500,0.0000,0.0000,-0.0000,1882.0000,1307.0000,1500.0000,2000.0000
195698.3490,2.0000,2000.0000,1000.0000,1311.0000,444.0000,31.0000,-98.0000,75.0000,30.0000,-5389.0000,-0.4160,-0.1188,-0.0472,-0.9003,152.5200,-45.0600,-57.1300,-6.8100,-8.5500,-6.4800,0.0000,0.0000,-0.0000,1882.0000,1307.0000,1500.0000,2000.0000
195715.4330,2.0000,2000.0000,1000.0000,1311.0000,440.0000,-13.0000,-95.0000,236.0000,-483.0000,-4330.0000,-0.4207,-0.1442,-0.1084,-0.8891,152.3300,-45.2100,-57.2300,-7.0400,-8.7500,-5.8700,0.0000,0.0000,-0.0000,1882.0000,1307.0000,1500.0000,2000.0000
195732.2470,2.0000,2000.0000,2000.0000,1716.0000,450.0000,-44.0000,-84.0000,326.0000,-900.0000,-2085.0000,-0.4229,-0.1736,-0.1661,-0.8737,152.1300,-45.3600,-57.3300,-7.2500,-8.9400,-5.3300,0.0000,0.0000,-0.0000,1130.0000,1656.0000,1500.0000,2000.0000
195749.0380,2.0000,2000.0000,2000.0000,1716.0000,459.0000,-63.0000,-69.0000,287.0000,-965.0000,493.0000,-0.4214,-0.2065,-0.2223,-0.8546,151.9300,-45.5200,-57.4100,-7.3700,-9.2000,-4.9300,0.0000,0.0000,-0.0000,1130.0000,1656.0000,1500.0000,2000.0000
195765.9900,2.0000,2000.0000,2000.0000,1716.0000,457.0000,-67.0000,-49.0000,478.0000,-1339.0000,3383.0000,-0.4150,-0.2407,-0.2780,-0.8322,151.7100,-45.7200,-57.4900,-7.3700,-9.6700,-4.7000,0.0000,0.0000,-0.0000,1130.0000,1656.0000,1500.0000,2000.0000
195782.7950,2.0000,2000.0000,2000.0000,1716.0000,402.0000,-68.0000,-22.0000,790.0000,-1727.0000,5259.0000,-0.4047,-0.2728,-0.3280,-0.8088,151.7100,-45.7200,-57.4900,-7.3700,-9.6700,-4.7000,0.0000,0.0000,-0.0000,1130.0000,1656.0000,1500.0000,2000.0000
195799.6920,2.0000,2000.0000,2000.0000,1716.0000,289.0000,-78.0000,14.0000,1120.0000,-1831.0000,6693.0000,-0.3933,-0.3012,-0.3651,-0.7882,151.5000,-45.9200,-57.5600,-7.1800,-10.2300,-4.5900,0.0000,0.0000,-0.0000,1130.0000,1656.0000,1500.0000,2000.0000
195816.4570,2.0000,2000.0000,2000.0000,1716.0000,167.0000,-78.0000,54.0000,1164.0000,-1707.0000,7270.0000,-0.3838,-0.3252,-0.3847,-0.7739,151.3000,-46.1200,-57.6200,-6.8500,-10.8500,-4.5000,0.0000,0.0000,-0.0000,1130.0000,1656.0000,1500.0000,2000.0000
195833.3860,2.0000,2000.0000,1849.0000,1861.0000,41.0000,-59.0000,88.0000,1146.0000,-1465.0000,8127.0000,-0.3750,-0.3432,-0.3888,-0.7684,151.1100,-46.3300,-57.6800,-6.4600,-11.4600,-4.4300,0.0000,0.0000,-0.0000,1145.0000,1492.0000,1500.0000,2000.0000
195850.4730,2.0000,2000.0000,1848.0000,1862.0000,-93.0000,-19.0000,113.0000,953.0000,-1043.0000,8777.0000,-0.3679,-0.3526,-0.3776,-0.7732,150.9400,-46.5600,-57.7300,-6.0200,-12.0700,-4.4200,0.0000,0.0000,-0.0000,1145.0000,1492.0000,1500.0000,2000.0000
195867.1760,2.0000,2000.0000,1848.0000,1862.0000,-217.0000,23.0000,124.0000,720.0000,-545.0000,8133.0000,-0.3631,-0.3505,-0.3532,-0.7877,150.7600,-46.8300,-57.7800,-5.5500,-12.6900,-4.4900,0.0000,0.0000,-0.0000,1145.0000,1492.0000,1500.0000,2000.0000
195883.9740,2.0000,2000.0000,1848.0000,1862.0000,-303.0000,54.0000,130.0000,488.0000,-159.0000,5963.0000,-0.3603,-0.3385,-0.3178,-0.8091,150.7600,-46.8300,-57.7800,-5.5500,-12.6900,-4.4900,0.0000,0.0000,-0.0000,1145.0000,1492.0000,1500.0000,2000.0000
195900.7930,2.0000,2000.0000,1848.0000,1862.0000,-378.0000,70.0000,127.0000,602.0000,96.0000,4082.0000,-0.3596,-0.3184,-0.2729,-0.8336,150.6000,-47.1100,-57.8400,-5.2500,-13.1400,-4.5800,0.0000,0.0000,-0.0000,1145.0000,1492.0000,1500.0000,2000.0000
195917.7260,2.0000,2000.0000,1848.0000,1862.0000,-422.0000,90.0000,116.0000,706.0000,492.0000,3034.0000,-0.3602,-0.2918,-0.2212,-0.8580,150.4500,-47.3800,-57.9000,-5.1800,-13.4500,-4.6400,0.0000,0.0000,-0.0000,1145.0000,1492.0000,1500.0000,2000.0000
195934.8340,2.0000,2000.0000,1083.0000,1000.0000,-455.0000,104.0000,97.0000,667.0000,1000.0000,2301.0000,-0.3628,-0.2593,-0.1645,-0.8798,150.3100,-47.6500,-57.9600,-5.2500,-13.6500,-4.7000,0.0000,0.0000,-0.0000,1989.0000,1555.0000,1500.0000,2000.0000
195951.7020,2.0000,2000.0000,1065.0000,1000.0000,-470.0000,109.0000,67.0000,672.0000,1582.0000,1425.0000,-0.3674,-0.2222,-0.1062,-0.8969,150.1600,-47.9300,-58.0200,-5.4200,-13.7900,-4.7400,0.0000,0.0000,-0.0000,1989.0000,1555.0000,1500.0000,2000.0000
195968.5350,2.0000,2000.0000,1065.0000,1000.0000,-461.0000,112.0000,38.0000,438.0000,1702.0000,647.0000,-0.3744,-0.1830,-0.0483,-0.9078,150.0000,-48.2500,-58.0900,-5.6300,-13.9400,-4.7100,0.0000,0.0000,-0.0000,1989.0000,1555.0000,1500.0000,2000.0000
195985.5440,2.0000,2000.0000,1065.0000,1000.0000,-409.0000,113.0000,10.0000,752.0000,1375.0000,527.0000,-0.3828,-0.1434,0.0053,-0.9126,150.0000,-48.2500,-58.0900,-5.6300,-13.9400,-4.7100,0.0000,0.0000,-0.0000,1989.0000,1555.0000,1500.0000,2000.0000
196002.3650,2.0000,2000.0000,1065.0000,1000.0000,-313.0000,116.0000,-26.0000,1061.0000,1305.0000,482.0000,-0.3921,-0.1075,0.0475,-0.9124,149.8400,-48.5500,-58.1600,-5.8400,-14.0600,-4.6200,0.0000,0.0000,-0.0000,1989.0000,1555.0000,1500.0000,2000.0000
196019.0300,2.0000,2000.0000,1065.0000,1000.0000,-158.0000,113.0000,-67.0000,1046.0000,1173.0000,141.0000,-0.4036,-0.0791,0.0717,-0.9087,149.6900,-48.8400,-58.2300,-6.0600,-14.2100,-4.5000,0.0000,0.0000,-0.0000,1989.0000,1555.0000,1500.0000,2000.0000
196035.7110,2.0000,2000.0000,1000.0000,1635.0000,33.0000,123.0000,-104.0000,613.0000,883.0000,-597.0000,-0.4179,-0.0609,0.0720,-0.9036,149.5300,-49.1400,-58.3000,-6.2700,-14.3500,-4.3400,0.0000,0.0000,-0.0000,1801.0000,1064.0000,1500.0000,2000.0000
196052.4340,2.0000,2000.0000,1000.0000,1636.0000,199.0000,140.0000,-137.0000,315.0000,731.0000,-1288.0000,-0.4350,-0.0523,0.0471,-0.8977,149.3700,-49.4400,-58.3700,-6.3900,-14.5100,-4.0900,0.0000,0.0000,-0.0000,1801.0000,1064.0000,1500.0000,2000.0000
196069.2650,2.0000,2000.0000,1000.0000,1636.0000,347.0000,149.0000,-159.0000,363.0000,593.0000,-2629.0000,-0.4536,-0.0512,0.0011,-0.8897,149.2000,-49.7800,-58.4400,-6.4200,-14.7000,-3.7400,0.0000,0.0000,-0.0000,1801.0000,1064.0000,1500.0000,2000.0000
196085.9590,2.0000,2000.0000,1000.0000,1636.0000,424.0000,127.0000,-176.0000,315.0000,552.0000,-5261.0000,-0.4718,-0.0588,-0.0611,-0.8776,149.2000,-49.7800,-58.4400,-6.4200,-14.7000,-3.7400,0.0000,0.0000,-0.0000,1801.0000,1064.0000,1500.0000,2000.0000
196102.9200,2.0000,2000.0000,1000.0000,1636.0000,400.0000,64.0000,-181.0000,464.0000,462.0000,-7378.0000,-0.4895,-0.0735,-0.1236,-0.8600,149.0400,-50.1000,-58.5000,-6.4700,-14.8700,-3.2200,0.0000,0.0000,-0.0000,1801.0000,1064.0000,1500.0000,2000.0000
196119.6880,2.0000,2000.0000,1000.0000,1636.0000,334.0000,-21.0000,-175.0000,371.0000,-179.0000,-7360.0000,-0.5075,-0.0938,-0.1731,-0.8389,148.8800,-50.4200,-58.5500,-6.6100,-14.9700,-2.4600,0.0000,0.0000,-0.0000,1801.0000,1064.0000,1500.0000,2000.0000
196136.5140,2.0000,2000.0000,1000.0000,1636.0000,277.0000,-104.0000,-160.0000,280.0000,-916.0000,-5033.0000,-0.5255,-0.1202,-0.2072,-0.8163,148.7200,-50.7300,-58.6000,-6.7600,-15.0300,-1.7500,0.0000,0.0000,-0.0000,1801.0000,1064.0000,1500.0000,2000.0000
196153.2340,2.0000,2000.0000,1430.0000,2000.0000,246.0000,-184.0000,-136.0000,178.0000,-1590.0000,-976.0000,-0.5425,-0.1522,-0.2292,-0.7937,148.5600,-51.0600,-58.6400,-6.7700,-15.1800,-1.1900,0.0000,0.0000,-0.0000,1099.0000,1029.0000,1500.0000,2000.0000
196170.0600,2.0000,2000.0000,1430.0000,2000.0000,223.0000,-241.0000,-113.0000,714.0000,-1797.0000,3849.0000,-0.5583,-0.1915,-0.2418,-0.7701,148.3800,-51.4300,-58.6700,-6.5000,-15.5300,-0.9400,0.0000,0.0000,-0.0000,1099.0000,1029.0000,1500.0000,2000.0000
196186.5860,2.0000,2000.0000,1430.0000,2000.0000,185.0000,-266.0000,-77.0000,1291.0000,-1963.0000,8237.0000,-0.5711,-0.2331,-0.2465,-0.7475,148.3800,-51.4300,-58.6700,-6.5000,-15.5300,-0.9400,0.0000,0.0000,-0.0000,1099.0000,1029.0000,1500.0000,2000.0000
196203.5300,2.0000,2000.0000,1430.0000,2000.0000,134.0000,-267.0000,-33.0000,1833.0000,-2425.0000,11755.0000,-0.5804,-0.2737,-0.2434,-0.7273,148.2200,-51.8000,-58.7000,-5.8900,-16.0300,-1.0000,0.0000,0.0000,-0.0000,1099.0000,1029.0000,1500.0000,2000.0000
196220.1520,2.0000,2000.0000,1588.0000,2000.0000,84.0000,-253.0000,4.0000,2224.0000,-2412.0000,14253.0000,-0.5867,-0.3095,-0.2326,-0.7113,148.0700,-52.1700,-58.7100,-5.0100,-16.5300,-1.2800,0.0000,0.0000,-0.0000,1235.0000,1490.0000,1500.0000,2000.0000
196237.0730,2.0000,2000.0000,1756.0000,1774.0000,43.0000,-216.0000,32.0000,2313.0000,-2344.0000,15562.0000,-0.5899,-0.3403,-0.2175,-0.6993,147.9500,-52.5300,-58.7200,-3.9700,-16.9100,-1.7100,0.0000,0.0000,-0.0000,1235.0000,1490.0000,1500.0000,2000.0000
196253.9500,2.0000,2000.0000,1756.0000,1774.0000,15.0000,-165.0000,52.0000,2157.0000,-2146.0000,15982.0000,-0.5904,-0.3637,-0.2012,-0.6919,147.8500,-52.9100,-58.7400,-2.9200,-17.1300,-2.3000,0.0000,0.0000,-0.0000,1235.0000,1490.0000,1500.0000,2000.0000
196271.2560,2.0000,2000.0000,1756.0000,1774.0000,-14.0000,-95.0000,67.0000,2064.0000,-2054.0000,15575.0000,-0.5881,-0.3793,-0.1864,-0.6896,147.7600,-53.3100,-58.7600,-1.9400,-17.2400,-2.9400,0.0000,0.0000,-0.0000,1235.0000,1490.0000,1500.0000,2000.0000
196288.0490,2.0000,2000.0000,1756.0000,1774.0000,-60.0000,-16.0000,80.0000,1803.0000,-1695.0000,14259.0000,-0.5845,-0.3835,-0.1737,-0.6936,147.7600,-53.3100,-58.7600,-1.9400,-17.2400,-2.9400,0.0000,0.0000,-0.0000,1235.0000,1490.0000,1500.0000,2000.0000
196305.1380,2.0000,2000.0000,1756.0000,1774.0000,-101.0000,45.0000,94.0000,1564.0000,-1415.0000,11916.0000,-0.5799,-0.3768,-0.1616,-0.7040,147.7000,-53.7000,-58.8100,-1.0600,-17.2600,-3.5600,0.0000,0.0000,-0.0000,1235.0000,1490.0000,1500.0000,2000.0000
196321.8480,2.0000,2000.0000,1620.0000,2000.0000,-134.0000,86.0000,107.0000,1442.0000,-1099.0000,9188.0000,-0.5744,-0.3624,-0.1494,-0.7186,147.6600,-54.0700,-58.8600,-0.4500,-17.2600,-4.0700,0.0000,0.0000,-0.0000,1176.0000,1293.0000,1500.0000,2000.0000
196338.4950,2.0000,2000.0000,1618.0000,2000.0000,-164.0000,109.0000,116.0000,1244.0000,-649.0000,6593.0000,-0.5684,-0.3418,-0.1362,-0.7359,147.6300,-54.4300,-58.9200,-0.1400,-17.2900,-4.4200,0.0000,0.0000,-0.0000,1176.0000,1293.0000,1500.0000,2000.0000
196355.1000,2.0000,2000.0000,1618.0000,2000.0000,-203.0000,103.0000,122.0000,916.0000,-131.0000,3807.0000,-0.5626,-0.3174,-0.1192,-0.7540,147.6000,-54.8000,-58.9800,-0.1200,-17.3600,-4.6200,0.0000,0.0000,-0.0000,1176.0000,1293.0000,1500.0000,2000.0000
196372.0580,2.0000,2000.0000,1618.0000,2000.0000,-232.0000,78.0000,125.0000,932.0000,9.0000,1843.0000,-0.5574,-0.2911,-0.0962,-0.7716,147.6000,-54.8000,-58.9800,-0.1200,-17.3600,-4.6200,0.0000,0.0000,-0.0000,1176.0000,1293.0000,1500.0000,2000.0000
196388.7280,2.0000,2000.0000,1618.0000,2000.0000,-252.0000,51.0000,119.0000,774.0000,422.0000,643.0000,-0.5529,-0.2657,-0.0689,-0.7867,147.5600,-55.2000,-59.0500,-0.2900,-17.4400,-4.6400,0.0000,0.0000,-0.0000,1176.0000,1293.0000,1500.0000,2000.0000
196405.7810,2.0000,2000.0000,1618.0000,2000.0000,-273.0000,29.0000,105.0000,699.0000,856.0000,687.0000,-0.5498,-0.2403,-0.0364,-0.7992,147.5100,-55.5900,-59.1200,-0.5900,-17.5100,-4.5600,0.0000,0.0000,-0.0000,1176.0000,1293.0000,1500.0000,2000.0000
196422.3050,2.0000,2000.0000,1618.0000,2000.0000,-293.0000,2.0000,81.0000,554.0000,1106.0000,962.0000,-0.5488,-0.2165,-0.0013,-0.8074,147.4600,-55.9600,-59.1900,-0.9100,-17.5400,-4.4800,0.0000,0.0000,-0.0000,1176.0000,1293.0000,1500.0000,2000.0000
196439.1660,2.0000,2000.0000,1000.0000,1464.0000,-308.0000,-18.0000,53.0000,696.0000,1359.0000,1849.0000,-0.5506,-0.1930,0.0376,-0.8113,147.4100,-56.3200,-59.2600,-1.2100,-17.5100,-4.4300,0.0000,0.0000,-0.0000,1973.0000,1064.0000,1500.0000,2000.0000
196455.8230,2.0000,2000.0000,1000.0000,1464.0000,-320.0000,-34.0000,31.0000,905.0000,1163.0000,3150.0000,-0.5544,-0.1706,0.0780,-0.8108,147.3500,-56.6900,-59.3300,-1.4200,-17.4000,-4.5000,0.0000,0.0000,-0.0000,1973.0000,1064.0000,1500.0000,2000.0000
196472.6660,2.0000,2000.0000,1000.0000,1464.0000,-314.0000,-38.0000,6.0000,878.0000,770.0000,4422.0000,-0.5598,-0.1484,0.1196,-0.8064,147.3500,-56.6900,-59.3300,-1.4200,-17.4000,-4.5000,0.0000,0.0000,-0.0000,1973.0000,1064.0000,1500.0000,2000.0000
196489.3930,2.0000,2000.0000,1000.0000,1464.0000,-265.0000,-44.0000,-25.0000,962.0000,695.0000,4850.0000,-0.5667,-0.1293,0.1572,-0.7984,147.2900,-57.0600,-59.4100,-1.4900,-17.2200,-4.7100,0.0000,0.0000,-0.0000,1973.0000,1064.0000,1500.0000,2000.0000
196506.1140,2.0000,2000.0000,1000.0000,1464.0000,-185.0000,-57.0000,-57.0000,1003.0000,571.0000,5139.0000,-0.5750,-0.1172,0.1870,-0.7879,147.2300,-57.4300,-59.5000,-1.5700,-16.9900,-4.9700,0.0000,0.0000,-0.0000,1973.0000,1064.0000,1500.0000,2000.0000
196523.0440,2.0000,2000.0000,1000.0000,1464.0000,-94.0000,-64.0000,-91.0000,1026.0000,486.0000,5541.0000,-0.5850,-0.1142,0.2071,-0.7758,147.1700,-57.7700,-59.5900,-1.6700,-16.7500,-5.2500,0.0000,0.0000,-0.0000,1973.0000,1064.0000,1500.0000,2000.0000
196539.8700,2.0000,2000.0000,1000.0000,1730.0000,-11.0000,-69.0000,-118.0000,1023.0000,-66.0000,6235.0000,-0.5962,-0.1206,0.2171,-0.7634,147.1100,-58.1000,-59.6900,-1.7600,-16.4800,-5.5600,0.0000,0.0000,-0.0000,1743.0000,1029.0000,1500.0000,2000.0000
196556.5650,2.0000,2000.0000,1000.0000,1730.0000,54.0000,-73.0000,-134.0000,1060.0000,-469.0000,6703.0000,-0.6082,-0.1342,0.2185,-0.7512,147.0600,-58.4400,-59.8000,-1.7000,-16.2300,-5.9400,0.0000,0.0000,-0.0000,1743.0000,1029.0000,1500.0000,2000.0000
196573.4860,2.0000,2000.0000,1000.0000,1730.0000,83.0000,-81.0000,-141.0000,1039.0000,-609.0000,6494.0000,-0.6203,-0.1531,0.2148,-0.7387,147.0600,-58.4400,-59.8000,-1.7000,-16.2300,-5.9400,0.0000,0.0000,-0.0000,1743.0000,1029.0000,1500.0000,2000.0000
196590.2020,2.0000,2000.0000,1000.0000,1730.0000,87.0000,-95.0000,-140.0000,1170.0000,-688.0000,6525.0000,-0.6314,-0.1743,0.2105,-0.7257,147.0100,-58.7900,-59.9200,-1.5100,-16.0100,-6.3400,0.0000,0.0000,-0.0000,1743.0000,1029.0000,1500.0000,2000.0000
196606.9300,2.0000,2000.0000,1000.0000,1730.0000,92.0000,-115.0000,-135.0000,1174.0000,-1092.0000,6887.0000,-0.6408,-0.1978,0.2075,-0.7122,146.9600,-59.1300,-60.0400,-1.3000,-15.7900,-6.7100,0.0000,0.0000,-0.0000,1743.0000,1029.0000,1500.0000,2000.0000
196623.7660,2.0000,2000.0000,1000.0000,1754.0000,96.0000,-132.0000,-121.0000,1287.0000,-1428.0000,7563.0000,-0.6478,-0.2233,0.2058,-0.6987,146.9300,-59.4400,-60.1600,-1.0500,-15.5500,-7.0800,0.0000,0.0000,-0.0000,1311.0000,1348.0000,1500.0000,2000.0000
196640.5220,2.0000,2000.0000,1537.0000,1839.0000,107.0000,-151.0000,-103.0000,1418.0000,-1635.0000,8028.0000,-0.6519,-0.2504,0.2053,-0.6857,146.9000,-59.7400,-60.3000,-0.7500,-15.2500,-7.5100,0.0000,0.0000,-0.0000,1311.0000,1348.0000,1500.0000,2000.0000
196657.2650,2.0000,2000.0000,1537.0000,1839.0000,109.0000,-170.0000,-83.0000,1511.0000,-1836.0000,8665.0000,-0.6526,-0.2794,0.2064,-0.6734,146.9000,-59.7400,-60.3000,-0.7500,-15.2500,-7.5100,0.0000,0.0000,-0.0000,1311.0000,1348.0000,1500.0000,2000.0000
196674.1100,2.0000,2000.0000,1537.0000,1839.0000,98.0000,-182.0000,-65.0000,1570.0000,-1684.0000,9155.0000,-0.6505,-0.3086,0.2101,-0.6614,146.8800,-60.0600,-60.4400,-0.3900,-14.9300,-7.9600,0.0000,0.0000,-0.0000,1311.0000,1348.0000,1500.0000,2000.0000
196690.8760,2.0000,2000.0000,1537.0000,1839.0000,79.0000,-180.0000,-44.0000,1867.0000,-1858.0000,10777.0000,-0.6464,-0.3362,0.2167,-0.6498,146.8700,-60.3800,-60.5800,-0.0100,-14.5600,-8.4300,0.0000,0.0000,-0.0000,1311.0000,1348.0000,1500.0000,2000.0000
196707.6250,2.0000,2000.0000,1537.0000,1839.0000,46.0000,-153.0000,-26.0000,1930.0000,-1884.0000,11965.0000,-0.6415,-0.3590,0.2252,-0.6394,146.8700,-60.6900,-60.7400,0.4000,-14.0800,-8.9800,0.0000,0.0000,-0.0000,1311.0000,1348.0000,1500.0000,2000.0000
196724.3460,2.0000,2000.0000,2000.0000,1671.0000,30.0000,-122.0000,-11.0000,1973.0000,-1753.0000,12302.0000,-0.6368,-0.3758,0.2341,-0.6313,146.8800,-60.9700,-60.9000,0.8500,-13.4800,-9.5800,0.0000,0.0000,-0.0000,1069.0000,1796.0000,1500.0000,2000.0000
196741.1300,2.0000,2000.0000,2000.0000,1636.0000,8.0000,-83.0000,4.0000,1980.0000,-1716.0000,11912.0000,-0.6327,-0.3870,0.2419,-0.6256,146.8900,-61.2300,-61.0700,1.2700,-12.8400,-10.1900,0.0000,0.0000,-0.0000,1069.0000,1796.0000,1500.0000,2000.0000
196757.8380,2.0000,2000.0000,2000.0000,1636.0000,-12.0000,-40.0000,20.0000,1908.0000,-1537.0000,11089.0000,-0.6299,-0.3918,0.2484,-0.6229,146.8900,-61.2300,-61.0700,1.2700,-12.8400,-10.1900,0.0000,0.0000,-0.0000,1069.0000,1796.0000,1500.0000,2000.0000
196774.8490,2.0000,2000.0000,2000.0000,1636.0000,-55.0000,8.0000,36.0000,1803.0000,-1351.0000,9893.0000,-0.6289,-0.3891,0.2546,-0.6231,146.9200,-61.4900,-61.2600,1.6400,-12.2400,-10.7200,0.0000,0.0000,-0.0000,1069.0000,1796.0000,1500.0000,2000.0000
196791.5530,2.0000,2000.0000,2000.0000,1636.0000,-124.0000,46.0000,53.0000,1612.0000,-1227.0000,8477.0000,-0.6313,-0.3764,0.2630,-0.6250,146.9500,-61.7600,-61.4600,1.9400,-11.7200,-11.1800,0.0000,0.0000,-0.0000,1069.0000,1796.0000,1500.0000,2000.0000
196808.3840,2.0000,2000.0000,2000.0000,1636.0000,-193.0000,81.0000,68.0000,1351.0000,-980.0000,6747.0000,-0.6370,-0.3532,0.2752,-0.6275,146.9900,-62.0100,-61.6700,2.1600,-11.3400,-11.5500,0.0000,0.0000,-0.0000,1069.0000,1796.0000,1500.0000,2000.0000
196825.1070,2.0000,2000.0000,2000.0000,1636.0000,-253.0000,117.0000,78.0000,1318.0000,-606.0000,5112.0000,-0.6457,-0.3199,0.2900,-0.6298,147.0300,-62.2400,-61.8800,2.2700,-11.1400,-11.8100,0.0000,0.0000,-0.0000,1069.0000,1796.0000,1500.0000,2000.0000
196842.1860,2.0000,2000.0000,1055.0000,1000.0000,-305.0000,153.0000,83.0000,1532.0000,-447.0000,2911.0000,-0.6568,-0.2762,0.3070,-0.6310,147.0700,-62.4600,-62.0900,2.2800,-11.1200,-11.9800,0.0000,0.0000,-0.0000,1990.0000,1545.0000,1500.0000,2000.0000
196859.0260,2.0000,2000.0000,1054.0000,1000.0000,-334.0000,171.0000,83.0000,1320.0000,-259.0000,119.0000,-0.6687,-0.2258,0.3241,-0.6300,147.0700,-62.4600,-62.0900,2.2800,-11.1200,-11.9800,0.0000,0.0000,-0.0000,1990.0000,1545.0000,1500.0000,2000.0000
196875.9940,2.0000,2000.0000,1054.0000,1000.0000,-325.0000,184.0000,80.0000,1196.0000,88.0000,-2309.0000,-0.6799,-0.1717,0.3395,-0.6269,147.1200,-62.7100,-62.3200,2.3000,-11.2200,-12.0100,0.0000,0.0000,-0.0000,1990.0000,1545.0000,1500.0000,2000.0000
196892.8820,2.0000,2000.0000,1054.0000,1000.0000,-257.0000,193.0000,72.0000,1475.0000,140.0000,-4047.0000,-0.6890,-0.1208,0.3491,-0.6236,147.1600,-62.9600,-62.5400,2.3400,-11.4800,-11.8300,0.0000,0.0000,-0.0000,1990.0000,1545.0000,1500.0000,2000.0000
196909.8360,2.0000,2000.0000,1054.0000,1000.0000,-149.0000,186.0000,58.0000,1737.0000,204.0000,-4821.0000,-0.6960,-0.0787,0.3497,-0.6222,147.2100,-63.2200,-62.7800,2.4500,-11.8600,-11.6500,0.0000,0.0000,-0.0000,1990.0000,1545.0000,1500.0000,2000.0000
196926.4160,2.0000,2000.0000,1054.0000,1000.0000,-21.0000,171.0000,36.0000,1427.0000,527.0000,-5866.0000,-0.7018,-0.0513,0.3396,-0.6242,147.2500,-63.4700,-63.0200,2.6000,-12.2500,-11.4100,0.0000,0.0000,-0.0000,1990.0000,1545.0000,1500.0000,2000.0000
196943.1820,2.0000,2000.0000,1069.0000,1011.0000,118.0000,138.0000,4.0000,1097.0000,1053.0000,-7089.0000,-0.7073,-0.0413,0.3187,-0.6296,147.3000,-63.7100,-63.2800,2.7600,-12.6200,-11.0000,0.0000,0.0000,-0.0000,1961.0000,1531.0000,1500.0000,2000.0000
196959.9020,2.0000,2000.0000,1069.0000,1011.0000,228.0000,95.0000,-27.0000,933.0000,1161.0000,-7714.0000,-0.7127,-0.0498,0.2901,-0.6368,147.3000,-63.7100,-63.2800,2.7600,-12.6200,-11.0000,0.0000,0.0000,-0.0000,1961.0000,1531.0000,1500.0000,2000.0000
196976.9670,2.0000,2000.0000,1069.0000,1011.0000,306.0000,38.0000,-52.0000,831.0000,1031.0000,-7471.0000,-0.7169,-0.0738,0.2572,-0.6438,147.3600,-63.9800,-63.5400,2.9400,-12.8700,-10.4400,0.0000,0.0000,-0.0000,1961.0000,1531.0000,1500.0000,2000.0000
196993.9850,2.0000,2000.0000,1069.0000,1011.0000,358.0000,-5.0000,-70.0000,851.0000,777.0000,-6480.0000,-0.7190,-0.1101,0.2229,-0.6491,147.4200,-64.2600,-63.8000,3.0700,-13.0600,-9.8200,0.0000,0.0000,-0.0000,1961.0000,1531.0000,1500.0000,2000.0000
197010.7520,2.0000,2000.0000,1069.0000,1011.0000,387.0000,-51.0000,-86.0000,1012.0000,636.0000,-5060.0000,-0.7186,-0.1548,0.1888,-0.6511,147.4800,-64.5300,-64.0600,3.1200,-13.1900,-9.2400,0.0000,0.0000,-0.0000,1961.0000,1531.0000,1500.0000,2000.0000
197027.6390,2.0000,2000.0000,1069.0000,1011.0000,412.0000,-66.0000,-91.0000,1212.0000,257.0000,-3253.0000,-0.7155,-0.2047,0.1544,-0.6499,147.5400,-64.7800,-64.3000,3.1000,-13.2500,-8.8100,0.0000,0.0000,-0.0000,1961.0000,1531.0000,1500.0000,2000.0000
197044.5900,2.0000,2000.0000,2000.0000,1625.0000,426.0000,-73.0000,-89.0000,1274.0000,-122.0000,-1550.0000,-0.7088,-0.2573,0.1184,-0.6461,147.6000,-65.0300,-64.5400,3.0900,-13.2000,-8.5400,0.0000,0.0000,-0.0000,1096.0000,1780.0000,1500.0000,2000.0000
197061.4190,2.0000,2000.0000,2000.0000,1625.0000,432.0000,-67.0000,-84.0000,1198.0000,-242.0000,-147.0000,-0.6987,-0.3096,0.0819,-0.6397,147.6000,-65.0300,-64.5400,3.0900,-13.2000,-8.5400,0.0000,0.0000,-0.0000,1096.0000,1780.0000,1500.0000,2000.0000
197078.2020,2.0000,2000.0000,2000.0000,1625.0000,422.0000,-59.0000,-74.0000,1400.0000,-687.0000,1561.0000,-0.6854,-0.3596,0.0450,-0.6316,147.6700,-65.2900,-64.7900,3.1900,-13.1000,-8.3200,0.0000,0.0000,-0.0000,1096.0000,1780.0000,1500.0000,2000.0000
197095.0110,2.0000,2000.0000,2000.0000,1625.0000,384.0000,-40.0000,-56.0000,1584.0000,-1090.0000,2775.0000,-0.6693,-0.4046,0.0097,-0.6231,147.7400,-65.5600,-65.0300,3.4000,-12.9000,-8.1900,0.0000,0.0000,-0.0000,1096.0000,1780.0000,1500.0000,2000.0000
197111.8160,2.0000,2000.0000,2000.0000,1625.0000,312.0000,-18.0000,-34.0000,1793.0000,-1322.0000,3250.0000,-0.6522,-0.4413,-0.0217,-0.6160,147.8100,-65.8000,-65.2600,3.7300,-12.6500,-8.0800,0.0000,0.0000,-0.0000,1096.0000,1780.0000,1500.0000,2000.0000
197128.3770,2.0000,1998.0000,2000.0000,1511.0000,210.0000,0.0000,-11.0000,1695.0000,-935.0000,3280.0000,-0.6376,-0.4666,-0.0451,-0.6114,147.8900,-66.0400,-65.4700,4.1000,-12.4100,-8.0000,0.0000,0.0000,-0.0000,1259.0000,1781.0000,1500.0000,1999.0000
197145.3760,2.0000,1998.0000,2000.0000,1460.0000,82.0000,23.0000,15.0000,1517.0000,-767.0000,3552.0000,-0.6273,-0.4796,-0.0592,-0.6107,147.9700,-66.2600,-65.6700,4.4200,-12.1700,-7.9400,0.0000,0.0000,-0.0000,1259.0000,1781.0000,1500.0000,1999.0000
197162.2050,2.0000,1998.0000,2000.0000,1460.0000,-33.0000,58.0000,41.0000,1337.0000,-967.0000,3671.0000,-0.6236,-0.4783,-0.0622,-0.6152,147.9700,-66.2600,-65.6700,4.4200,-12.1700,-7.9400,0.0000,0.0000,-0.0000,1259.0000,1781.0000,1500.0000,1999.0000
197178.9640,2.0000,1998.0000,2000.0000,1460.0000,-111.0000,96.0000,59.0000,1363.0000,-1071.0000,3191.0000,-0.6243,-0.4649,-0.0581,-0.6251,148.0700,-66.5000,-65.8700,4.8200,-12.0100,-7.8800,0.0000,0.0000,-0.0000,1259.0000,1781.0000,1500.0000,1999.0000
197196.0010,2.0000,1998.0000,2000.0000,1460.0000,-163.0000,135.0000,69.0000,1378.0000,-676.0000,1999.0000,-0.6276,-0.4411,-0.0509,-0.6395,148.1800,-66.7300,-66.0500,5.1800,-11.9000,-7.8300,0.0000,0.0000,-0.0000,1259.0000,1781.0000,1500.0000,1999.0000
197212.8990,2.0000,1998.0000,2000.0000,1460.0000,-201.0000,173.0000,75.0000,1514.0000,-436.0000,161.0000,-0.6317,-0.4102,-0.0426,-0.6564,148.2900,-66.9600,-66.2300,5.3900,-11.8500,-7.7500,0.0000,0.0000,-0.0000,1259.0000,1781.0000,1500.0000,1999.0000
197229.9570,2.0000,1999.0000,1114.0000,1000.0000,-235.0000,192.0000,78.0000,1518.0000,-266.0000,-2084.0000,-0.6367,-0.3715,-0.0332,-0.6749,148.4000,-67.1800,-66.4000,5.4400,-11.9100,-7.6000,0.0000,0.0000,-0.0000,1982.0000,1587.0000,1500.0000,2000.0000
197246.8680,2.0000,2000.0000,1104.0000,1000.0000,-240.0000,195.0000,76.0000,1260.0000,74.0000,-4481.0000,-0.6412,-0.3296,-0.0233,-0.6926,148.5200,-67.4200,-66.5900,5.3500,-12.0700,-7.3100,0.0000,0.0000,-0.0000,1982.0000,1587.0000,1500.0000,2000.0000
197263.5600,2.0000,2000.0000,1104.0000,1000.0000,-236.0000,187.0000,72.0000,1311.0000,364.0000,-5821.0000,-0.6447,-0.2877,-0.0131,-0.7081,148.5200,-67.4200,-66.5900,5.3500,-12.0700,-7.3100,0.0000,0.0000,-0.0000,1982.0000,1587.0000,1500.0000,2000.0000
197280.5000,2.0000,2000.0000,1104.0000,1000.0000,-208.0000,168.0000,62.0000,1522.0000,536.0000,-5917.0000,-0.6471,-0.2475,-0.0036,-0.7211,148.6300,-67.6600,-66.7700,5.1600,-12.2500,-6.9900,0.0000,0.0000,-0.0000,1982.0000,1587.0000,1500.0000,2000.0000
197297.3810,2.0000,2000.0000,1104.0000,1000.0000,-143.0000,157.0000,48.0000,1522.0000,629.0000,-5784.0000,-0.6481,-0.2132,0.0023,-0.7311,148.7400,-67.9000,-66.9700,4.9700,-12.4300,-6.5500,0.0000,0.0000,-0.0000,1982.0000,1587.0000,1500.0000,2000.0000
197314.5340,2.0000,2000.0000,1104.0000,1000.0000,-41.0000,137.0000,31.0000,1704.0000,672.0000,-6070.0000,-0.6475,-0.1879,-0.0004,-0.7385,148.8500,-68.1400,-67.1600,4.8000,-12.5600,-6.0700,0.0000,0.0000,-0.0000,1982.0000,1587.0000,1500.0000,2000.0000
197331.2340,2.0000,2000.0000,1000.0000,1533.0000,60.0000,103.0000,5.0000,1530.0000,822.0000,-6465.0000,-0.6464,-0.1759,-0.0120,-0.7424,148.9400,-68.3700,-67.3400,4.6400,-12.6900,-5.5300,0.0000,0.0000,-0.0000,1921.0000,1047.0000,1500.0000,2000.0000
197347.9700,2.0000,2000.0000,1000.0000,1533.0000,157.0000,50.0000,-28.0000,1163.0000,919.0000,-6678.0000,-0.6455,-0.1782,-0.0313,-0.7420,149.0500,-68.6300,-67.5100,4.4700,-12.8100,-4.9200,0.0000,0.0000,-0.0000,1921.0000,1047.0000,1500.0000,2000.0000
197364.6650,2.0000,2000.0000,1000.0000,1533.0000,231.0000,-15.0000,-59.0000,1257.0000,1024.0000,-6463.0000,-0.6459,-0.1949,-0.0551,-0.7360,149.0500,-68.6300,-67.5100,4.4700,-12.8100,-4.9200,0.0000,0.0000,-0.0000,1921.0000,1047.0000,1500.0000,2000.0000
197381.4730,2.0000,2000.0000,1000.0000,1533.0000,261.0000,-69.0000,-86.0000,1351.0000,1041.0000,-5747.0000,-0.6476,-0.2224,-0.0798,-0.7244,149.1500,-68.8800,-67.6800,4.2700,-12.9000,-4.3100,0.0000,0.0000,-0.0000,1921.0000,1047.0000,1500.0000,2000.0000
197398.2160,2.0000,2000.0000,1000.0000,1533.0000,257.0000,-116.0000,-108.0000,1198.0000,787.0000,-4190.0000,-0.6510,-0.2559,-0.1010,-0.7075,149.2400,-69.1300,-67.8400,4.0600,-12.9600,-3.7800,0.0000,0.0000,-0.0000,1921.0000,1047.0000,1500.0000,2000.0000
197414.8810,2.0000,2000.0000,1000.0000,1533.0000,237.0000,-158.0000,-118.0000,1378.0000,456.0000,-1892.0000,-0.6559,-0.2917,-0.1170,-0.6863,149.3300,-69.3700,-68.0000,3.9400,-12.9800,-3.4000,0.0000,0.0000,-0.0000,1921.0000,1047.0000,1500.0000,2000.0000
197431.8510,2.0000,1995.0000,1554.0000,2000.0000,226.0000,-176.0000,-128.0000,1377.0000,-107.0000,347.0000,-0.6617,-0.3293,-0.1288,-0.6611,149.4100,-69.6000,-68.1500,4.0100,-12.9500,-3.2000,0.0000,0.0000,-0.0000,1112.0000,1167.0000,1500.0000,1996.0000
197448.8910,2.0000,1995.0000,1555.0000,2000.0000,207.0000,-183.0000,-130.0000,1457.0000,-343.0000,2386.0000,-0.6673,-0.3657,-0.1384,-0.6339,149.4100,-69.6000,-68.1500,4.0100,-12.9500,-3.2000,0.0000,0.0000,-0.0000,1112.0000,1167.0000,1500.0000,1996.0000
197465.6050,2.0000,1995.0000,1555.0000,2000.0000,173.0000,-200.0000,-124.0000,1428.0000,-549.0000,3876.0000,-0.6730,-0.3989,-0.1437,-0.6061,149.5200,-69.8600,-68.3100,4.3200,-13.0200,-3.0500,0.0000,0.0000,-0.0000,1112.0000,1167.0000,1500.0000,1996.0000
197482.4610,2.0000,1995.0000,1555.0000,2000.0000,123.0000,-209.0000,-110.0000,1729.0000,-1155.0000,5246.0000,-0.6793,-0.4294,-0.1428,-0.5777,149.6300,-70.1200,-68.4500,4.7600,-13.0200,-2.9800,0.0000,0.0000,-0.0000,1112.0000,1167.0000,1500.0000,1996.0000
197499.0650,2.0000,1995.0000,1555.0000,2000.0000,59.0000,-208.0000,-88.0000,1887.0000,-1235.0000,6746.0000,-0.6868,-0.4535,-0.1352,-0.5517,149.7400,-70.3800,-68.5700,5.3300,-12.9500,-2.9300,0.0000,0.0000,-0.0000,1112.0000,1167.0000,1500.0000,1996.0000
197516.0940,2.0000,1995.0000,1555.0000,2000.0000,1.0000,-197.0000,-61.0000,2101.0000,-1469.0000,8376.0000,-0.6951,-0.4716,-0.1213,-0.5289,149.8700,-70.6200,-68.6700,5.9800,-12.7800,-2.9500,0.0000,0.0000,-0.0000,1112.0000,1167.0000,1500.0000,1996.0000
197532.7650,2.0000,2000.0000,1465.0000,2000.0000,-47.0000,-166.0000,-40.0000,2187.0000,-1339.0000,9594.0000,-0.7039,-0.4822,-0.1042,-0.5111,150.0000,-70.8400,-68.7700,6.7100,-12.4800,-3.0600,0.0000,0.0000,-0.0000,1122.0000,1086.0000,1500.0000,2000.0000
197549.4740,2.0000,2000.0000,1464.0000,2000.0000,-82.0000,-133.0000,-24.0000,2145.0000,-1285.0000,10219.0000,-0.7131,-0.4862,-0.0858,-0.4977,150.0000,-70.8400,-68.7700,6.7100,-12.4800,-3.0600,0.0000,0.0000,-0.0000,1122.0000,1086.0000,1500.0000,2000.0000
197566.3750,2.0000,2000.0000,1464.0000,2000.0000,-94.0000,-96.0000,-6.0000,2030.0000,-1176.0000,9869.0000,-0.7220,-0.4849,-0.0681,-0.4888,150.1600,-71.0900,-68.8600,7.4600,-12.1700,-3.2500,0.0000,0.0000,-0.0000,1122.0000,1086.0000,1500.0000,2000.0000
197583.3760,2.0000,2000.0000,1464.0000,2000.0000,-93.0000,-58.0000,7.0000,1980.0000,-1107.0000,8886.0000,-0.7294,-0.4803,-0.0532,-0.4842,150.3300,-71.3400,-68.9400,8.1300,-11.8100,-3.4800,0.0000,0.0000,-0.0000,1122.0000,1086.0000,1500.0000,2000.0000
197600.2710,2.0000,2000.0000,1464.0000,2000.0000,-99.0000,-29.0000,18.0000,1691.0000,-1155.0000,8034.0000,-0.7356,-0.4733,-0.0406,-0.4829,150.5000,-71.5700,-69.0300,8.6600,-11.5100,-3.7000,0.0000,0.0000,-0.0000,1122.0000,1086.0000,1500.0000,2000.0000
197617.2680,2.0000,2000.0000,1464.0000,2000.0000,-106.0000,-9.0000,31.0000,1507.0000,-706.0000,6750.0000,-0.7411,-0.4635,-0.0295,-0.4848,150.6800,-71.7900,-69.1100,9.0700,-11.2400,-3.8900,0.0000,0.0000,-0.0000,1122.0000,1086.0000,1500.0000,2000.0000
197634.1370,2.0000,2000.0000,1220.0000,2000.0000,-104.0000,3.0000,41.0000,1386.0000,-642.0000,5602.0000,-0.7459,-0.4520,-0.0192,-0.4889,150.8700,-72.0000,-69.2000,9.3200,-11.0700,-4.0400,0.0000,0.0000,-0.0000,1300.0000,1021.0000,1500.0000,2000.0000
197650.8190,2.0000,2000.0000,1220.0000,2000.0000,-104.0000,4.0000,43.0000,1376.0000,-423.0000,4489.0000,-0.7500,-0.4402,-0.0093,-0.4936,150.8700,-72.0000,-69.2000,9.3200,-11.0700,-4.0400,0.0000,0.0000,-0.0000,1300.0000,1021.0000,1500.0000,2000.0000
197667.5950,2.0000,2000.0000,1220.0000,2000.0000,-89.0000,-14.0000,41.0000,1356.0000,-270.0000,3390.0000,-0.7531,-0.4301,0.0011,-0.4978,151.0700,-72.2400,-69.2800,9.5700,-10.9800,-4.1400,0.0000,0.0000,-0.0000,1300.0000,1021.0000,1500.0000,2000.0000
197684.4850,2.0000,2000.0000,1220.0000,2000.0000,-80.0000,-38.0000,36.0000,1366.0000,-194.0000,2916.0000,-0.7557,-0.4226,0.0125,-0.5002,151.2700,-72.4700,-69.3700,9.7200,-10.9700,-4.1900,0.0000,0.0000,-0.0000,1300.0000,1021.0000,1500.0000,2000.0000
197701.4200,2.0000,2000.0000,1220.0000,2000.0000,-77.0000,-62.0000,29.0000,1342.0000,-190.0000,2893.0000,-0.7582,-0.4176,0.0260,-0.5001,151.4700,-72.6900,-69.4500,9.8000,-11.0100,-4.2200,0.0000,0.0000,-0.0000,1300.0000,1021.0000,1500.0000,2000.0000
197718.5760,2.0000,2000.0000,1220.0000,2000.0000,-78.0000,-85.0000,20.0000,1291.0000,-166.0000,3080.0000,-0.7610,-0.4143,0.0419,-0.4974,151.6600,-72.9100,-69.5300,9.8500,-11.0500,-4.2500,0.0000,0.0000,-0.0000,1300.0000,1021.0000,1500.0000,2000.0000
197735.8320,2.0000,2000.0000,1424.0000,2000.0000,-84.0000,-110.0000,12.0000,1310.0000,-201.0000,3628.0000,-0.7644,-0.4122,0.0604,-0.4921,151.8400,-73.1200,-69.6100,9.9000,-11.0400,-4.3000,0.0000,0.0000,-0.0000,1111.0000,1035.0000,1500.0000,2000.0000
197752.4710,2.0000,2000.0000,1424.0000,2000.0000,-102.0000,-128.0000,7.0000,1343.0000,-235.0000,4446.0000,-0.7684,-0.4102,0.0811,-0.4845,151.8400,-73.1200,-69.6100,9.9000,-11.0400,-4.3000,0.0000,0.0000,-0.0000,1111.0000,1035.0000,1500.0000,2000.0000
197769.2230,2.0000,2000.0000,1424.0000,2000.0000,-132.0000,-134.0000,2.0000,1463.0000,-205.0000,5608.0000,-0.7736,-0.4061,0.1047,-0.4751,152.0500,-73.3500,-69.7000,10.0500,-10.9400,-4.4100,0.0000,0.0000,-0.0000,1111.0000,1035.0000,1500.0000,2000.0000
197786.2410,2.0000,2000.0000,1424.0000,2000.0000,-151.0000,-134.0000,-2.0000,1628.0000,-186.0000,6506.0000,-0.7800,-0.3989,0.1304,-0.4642,152.2600,-73.5900,-69.7900,10.2300,-10.7300,-4.6100,0.0000,0.0000,-0.0000,1111.0000,1035.0000,1500.0000,2000.0000
197803.4950,2.0000,2000.0000,1424.0000,2000.0000,-158.0000,-129.0000,-6.0000,1862.0000,-140.0000,7132.0000,-0.7869,-0.3896,0.1565,-0.4522,152.4700,-73.8000,-69.8800,10.3800,-10.4500,-4.9000,0.0000,0.0000,-0.0000,1111.0000,1035.0000,1500.0000,2000.0000
197820.2340,2.0000,2000.0000,1424.0000,2000.0000,-157.0000,-122.0000,-11.0000,1923.0000,-307.0000,7532.0000,-0.7933,-0.3799,0.1811,-0.4399,152.6700,-74.0100,-69.9800,10.5000,-10.1100,-5.2400,0.0000,0.0000,-0.0000,1111.0000,1035.0000,1500.0000,2000.0000
197837.4280,2.0000,2000.0000,1353.0000,2000.0000,-152.0000,-114.0000,-9.0000,1968.0000,-584.0000,7885.0000,-0.7993,-0.3695,0.2048,-0.4274,152.8700,-74.2100,-70.0900,10.5900,-9.7300,-5.6100,0.0000,0.0000,-0.0000,1177.0000,1029.0000,1500.0000,2000.0000
197854.4550,2.0000,2000.0000,1352.0000,2000.0000,-148.0000,-98.0000,-4.0000,1891.0000,-563.0000,7998.0000,-0.8046,-0.3584,0.2267,-0.4157,153.0900,-74.4100,-70.2000,10.7200,-9.3300,-5.9900,0.0000,0.0000,-0.0000,1177.0000,1029.0000,1500.0000,2000.0000
197871.2520,2.0000,2000.0000,1352.0000,2000.0000,-139.0000,-78.0000,3.0000,1699.0000,-451.0000,7687.0000,-0.8091,-0.3467,0.2458,-0.4060,153.0900,-74.4100,-70.2000,10.7200,-9.3300,-5.9900,0.0000,0.0000,-0.0000,1177.0000,1029.0000,1500.0000,2000.0000
197888.0310,2.0000,2000.0000,1352.0000,2000.0000,-129.0000,-64.0000,8.0000,1618.0000,-445.0000,7066.0000,-0.8128,-0.3348,0.2624,-0.3980,153.3100,-74.6100,-70.3200,10.7800,-8.9400,-6.3700,0.0000,0.0000,-0.0000,1177.0000,1029.0000,1500.0000,2000.0000
197904.8180,2.0000,2000.0000,1352.0000,2000.0000,-117.0000,-52.0000,14.0000,1559.0000,-505.0000,6493.0000,-0.8159,-0.3229,0.2770,-0.3915,153.5300,-74.8000,-70.4500,10.7900,-8.6100,-6.7000,0.0000,0.0000,-0.0000,1177.0000,1029.0000,1500.0000,2000.0000
197921.7000,2.0000,2000.0000,1352.0000,2000.0000,-101.0000,-35.0000,18.0000,1605.0000,-423.0000,6204.0000,-0.8184,-0.3115,0.2891,-0.3867,153.7400,-74.9700,-70.5800,10.7700,-8.3400,-6.9900,0.0000,0.0000,-0.0000,1177.0000,1029.0000,1500.0000,2000.0000
197938.2860,2.0000,2000.0000,1366.0000,2000.0000,-91.0000,-24.0000,21.0000,1679.0000,-343.0000,5970.0000,-0.8204,-0.3008,0.2991,-0.3834,153.9400,-75.1300,-70.7200,10.7300,-8.1100,-7.2700,0.0000,0.0000,-0.0000,1173.0000,1040.0000,1500.0000,2000.0000
197955.1410,2.0000,2000.0000,1367.0000,2000.0000,-88.0000,-20.0000,24.0000,1698.0000,-251.0000,5521.0000,-0.8221,-0.2903,0.3077,-0.3810,153.9400,-75.1300,-70.7200,10.7300,-8.1100,-7.2700,0.0000,0.0000,-0.0000,1173.0000,1040.0000,1500.0000,2000.0000
197971.8380,2.0000,2000.0000,1367.0000,2000.0000,-84.0000,-16.0000,25.0000,1483.0000,-166.0000,4753.0000,-0.8238,-0.2796,0.3155,-0.3791,154.1700,-75.3100,-70.8600,10.6800,-7.8900,-7.5400,0.0000,0.0000,-0.0000,1173.0000,1040.0000,1500.0000,2000.0000
197988.5650,2.0000,2000.0000,1367.0000,2000.0000,-75.0000,-11.0000,24.0000,1416.0000,-113.0000,4144.0000,-0.8251,-0.2695,0.3225,-0.3777,154.3900,-75.4900,-71.0100,10.6200,-7.7400,-7.7700,0.0000,0.0000,-0.0000,1173.0000,1040.0000,1500.0000,2000.0000
198005.2790,2.0000,2000.0000,1367.0000,2000.0000,-77.0000,-14.0000,19.0000,1522.0000,-265.0000,3885.0000,-0.8263,-0.2598,0.3290,-0.3760,154.6000,-75.6600,-71.1700,10.5600,-7.6500,-7.9400,0.0000,0.0000,-0.0000,1173.0000,1040.0000,1500.0000,2000.0000
198021.9170,2.0000,2000.0000,1304.0000,2000.0000,-82.0000,-20.0000,16.0000,1615.0000,-149.0000,4046.0000,-0.8277,-0.2502,0.3362,-0.3733,154.8000,-75.8200,-71.3200,10.5100,-7.5900,-8.0900,0.0000,0.0000,-0.0000,1222.0000,1025.0000,1500.0000,2000.0000
198038.5880,2.0000,2000.0000,1303.0000,2000.0000,-92.0000,-33.0000,10.0000,1544.0000,-52.0000,3823.0000,-0.8289,-0.2403,0.3447,-0.3693,154.9900,-75.9700,-71.4800,10.4300,-7.5500,-8.2600,0.0000,0.0000,-0.0000,1222.0000,1025.0000,1500.0000,2000.0000
198055.2110,2.0000,2000.0000,1303.0000,2000.0000,-101.0000,-47.0000,2.0000,1673.0000,-73.0000,4096.0000,-0.8300,-0.2302,0.3548,-0.3635,154.9900,-75.9700,-71.4800,10.4300,-7.5500,-8.2600,0.0000,0.0000,-0.0000,1222.0000,1025.0000,1500.0000,2000.0000
198072.0120,2.0000,2000.0000,1303.0000,2000.0000,-105.0000,-63.0000,-7.0000,1574.0000,110.0000,3953.0000,-0.8308,-0.2205,0.3670,-0.3555,155.2100,-76.1400,-71.6500,10.3000,-7.4300,-8.4400,0.0000,0.0000,-0.0000,1222.0000,1025.0000,1500.0000,2000.0000
198088.5660,2.0000,2000.0000,1303.0000,2000.0000,-105.0000,-76.0000,-15.0000,1654.0000,3.0000,4358.0000,-0.8310,-0.2119,0.3803,-0.3462,155.4100,-76.3100,-71.8200,10.1400,-7.3300,-8.6000,0.0000,0.0000,-0.0000,1222.0000,1025.0000,1500.0000,2000.0000
198105.5550,2.0000,2000.0000,1303.0000,2000.0000,-105.0000,-89.0000,-22.0000,1593.0000,-235.0000,4497.0000,-0.8306,-0.2041,0.3954,-0.3349,155.6100,-76.4700,-71.9900,9.9500,-7.2100,-8.7800,0.0000,0.0000,-0.0000,1222.0000,1025.0000,1500.0000,2000.0000
198122.4320,2.0000,1998.0000,1152.0000,1000.0000,-102.0000,-96.0000,-24.0000,1736.0000,-505.0000,5162.0000,-0.8294,-0.1970,0.4112,-0.3228,155.7900,-76.6200,-72.1600,9.7600,-7.0600,-8.9800,0.0000,0.0000,-0.0000,1978.0000,1631.0000,1500.0000,1999.0000
198139.2130,2.0000,1998.0000,1152.0000,1000.0000,-95.0000,-104.0000,-30.0000,1712.0000,-483.0000,5324.0000,-0.8273,-0.1913,0.4275,-0.3103,155.9700,-76.7600,-72.3400,9.5400,-6.8600,-9.1900,0.0000,0.0000,-0.0000,1978.0000,1631.0000,1500.0000,1999.0000
198155.9130,2.0000,1998.0000,1152.0000,1000.0000,-77.0000,-108.0000,-34.0000,1788.0000,-591.0000,5590.0000,-0.8246,-0.1872,0.4433,-0.2975,155.9700,-76.7600,-72.3400,9.5400,-6.8600,-9.1900,0.0000,0.0000,-0.0000,1978.0000,1631.0000,1500.0000,1999.0000
198172.6770,2.0000,1998.0000,1152.0000,1000.0000,-51.0000,-109.0000,-39.0000,1829.0000,-558.0000,5919.0000,-0.8209,-0.1860,0.4583,-0.2854,156.1600,-76.9200,-72.5200,9.3500,-6.5800,-9.3900,0.0000,0.0000,-0.0000,1978.0000,1631.0000,1500.0000,1999.0000
198189.4430,2.0000,1998.0000,1152.0000,1000.0000,-27.0000,-98.0000,-41.0000,1925.0000,-489.0000,6312.0000,-0.8168,-0.1881,0.4713,-0.2746,156.3500,-77.0600,-72.7100,9.1100,-6.2900,-9.6200,0.0000,0.0000,-0.0000,1978.0000,1631.0000,1500.0000,1999.0000
198206.5080,2.0000,1998.0000,1152.0000,1000.0000,13.0000,-84.0000,-45.0000,1986.0000,-542.0000,6539.0000,-0.8124,-0.1934,0.4816,-0.2657,156.5200,-77.1900,-72.9000,8.8500,-6.0000,-9.8600,0.0000,0.0000,-0.0000,1978.0000,1631.0000,1500.0000,1999.0000
198223.0950,2.0000,1998.0000,1152.0000,1000.0000,70.0000,-56.0000,-46.0000,1967.0000,-756.0000,6727.0000,-0.8082,-0.2039,0.4870,-0.2608,156.6800,-77.3100,-73.0900,8.5700,-5.6800,-10.0900,0.0000,0.0000,-0.0000,1978.0000,1631.0000,1500.0000,1999.0000
198239.6820,2.0000,2000.0000,2000.0000,1534.0000,142.0000,-12.0000,-43.0000,2001.0000,-887.0000,7231.0000,-0.8044,-0.2204,0.4857,-0.2618,156.6800,-77.3100,-73.0900,8.5700,-5.6800,-10.0900,0.0000,0.0000,-0.0000,1155.0000,1812.0000,1500.0000,2000.0000
198256.3550,2.0000,2000.0000,2000.0000,1534.0000,215.0000,28.0000,-38.0000,1764.0000,-574.0000,6458.0000,-0.8006,-0.2436,0.4766,-0.2694,156.8400,-77.4200,-73.2900,8.3000,-5.3200,-10.3300,0.0000,0.0000,-0.0000,1155.0000,1812.0000,1500.0000,2000.0000
198273.4030,2.0000,2000.0000,2000.0000,1534.0000,261.0000,64.0000,-32.0000,1706.0000,-384.0000,5320.0000,-0.7961,-0.2727,0.4599,-0.2835,157.0100,-77.5400,-73.4900,8.0700,-4.9300,-10.5600,0.0000,0.0000,-0.0000,1155.0000,1812.0000,1500.0000,2000.0000
198290.0530,2.0000,2000.0000,2000.0000,1534.0000,259.0000,97.0000,-26.0000,1794.0000,-320.0000,3761.0000,-0.7918,-0.3013,0.4384,-0.3001,157.1800,-77.6500,-73.7000,7.9400,-4.6400,-10.7200,0.0000,0.0000,-0.0000,1155.0000,1812.0000,1500.0000,2000.0000
198306.8410,2.0000,2000.0000,2000.0000,1534.0000,212.0000,109.0000,-23.0000,1820.0000,-244.0000,1922.0000,-0.7887,-0.3254,0.4147,-0.3164,157.3300,-77.7500,-73.9100,7.9600,-4.4900,-10.8300,0.0000,0.0000,-0.0000,1155.0000,1812.0000,1500.0000,2000.0000
198323.9840,2.0000,2000.0000,1916.0000,1710.0000,134.0000,116.0000,-15.0000,1684.0000,-397.0000,550.0000,-0.7879,-0.3415,0.3922,-0.3298,157.4800,-77.8400,-74.1300,8.0900,-4.5000,-10.8500,0.0000,0.0000,-0.0000,1201.0000,1514.0000,1500.0000,2000.0000
198341.0370,2.0000,2000.0000,1811.0000,1787.0000,44.0000,133.0000,-9.0000,1837.0000,-282.0000,-243.0000,-0.7914,-0.3460,0.3728,-0.3392,157.4800,-77.8400,-74.1300,8.0900,-4.5000,-10.8500,0.0000,0.0000,-0.0000,1201.0000,1514.0000,1500.0000,2000.0000
198358.1180,2.0000,2000.0000,1811.0000,1787.0000,-48.0000,148.0000,0.0000,2027.0000,-351.0000,-981.0000,-0.7997,-0.3383,0.3562,-0.3452,157.6300,-77.9300,-74.3400,8.2300,-4.5900,-10.8100,0.0000,0.0000,-0.0000,1201.0000,1514.0000,1500.0000,2000.0000
198374.8080,2.0000,2000.0000,1811.0000,1787.0000,-120.0000,148.0000,10.0000,1870.0000,-307.0000,-2248.0000,-0.8113,-0.3202,0.3437,-0.3481,157.8100,-78.0400,-74.5600,8.2900,-4.6500,-10.7800,0.0000,0.0000,-0.0000,1201.0000,1514.0000,1500.0000,2000.0000
198391.5090,2.0000,2000.0000,1811.0000,1787.0000,-174.0000,135.0000,18.0000,1684.0000,-268.0000,-3224.0000,-0.8246,-0.2939,0.3348,-0.3487,157.9800,-78.1400,-74.7900,8.3800,-4.8100,-10.6600,0.0000,0.0000,-0.0000,1201.0000,1514.0000,1500.0000,2000.0000
198408.5450,2.0000,2000.0000,1811.0000,1787.0000,-207.0000,121.0000,23.0000,1592.0000,-129.0000,-3895.0000,-0.8379,-0.2624,0.3299,-0.3469,158.1400,-78.2400,-75.0100,8.4900,-5.0200,-10.5200,0.0000,0.0000,-0.0000,1201.0000,1514.0000,1500.0000,2000.0000
198425.2570,2.0000,2000.0000,1000.0000,1262.0000,-233.0000,97.0000,24.0000,1465.0000,-11.0000,-4231.0000,-0.8499,-0.2287,0.3285,-0.3427,158.3000,-78.3400,-75.2500,8.6100,-5.2600,-10.3000,0.0000,0.0000,-0.0000,1985.0000,1259.0000,1500.0000,2000.0000
198442.2460,2.0000,2000.0000,1000.0000,1256.0000,-253.0000,73.0000,22.0000,1651.0000,-53.0000,-3668.0000,-0.8606,-0.1921,0.3309,-0.3362,158.3000,-78.3400,-75.2500,8.6100,-5.2600,-10.3000,0.0000,0.0000,-0.0000,1985.0000,1259.0000,1500.0000,2000.0000
198458.6770,2.0000,2000.0000,1000.0000,1256.0000,-246.0000,56.0000,16.0000,1833.0000,41.0000,-3146.0000,-0.8690,-0.1570,0.3356,-0.3278,158.4500,-78.4400,-75.4800,8.7300,-5.4500,-10.0800,0.0000,0.0000,-0.0000,1985.0000,1259.0000,1500.0000,2000.0000
198475.2430,2.0000,2000.0000,1000.0000,1256.0000,-209.0000,40.0000,7.0000,1817.0000,65.0000,-2702.0000,-0.8755,-0.1251,0.3408,-0.3188,158.6100,-78.5400,-75.7100,8.8300,-5.5900,-9.8500,0.0000,0.0000,-0.0000,1985.0000,1259.0000,1500.0000,2000.0000
198491.9730,2.0000,2000.0000,1000.0000,1256.0000,-140.0000,27.0000,-9.0000,1739.0000,39.0000,-2044.0000,-0.8801,-0.1011,0.3448,-0.3104,158.7600,-78.6400,-75.9400,8.9200,-5.6800,-9.6500,0.0000,0.0000,-0.0000,1985.0000,1259.0000,1500.0000,2000.0000
198508.8950,2.0000,2000.0000,1000.0000,1256.0000,-50.0000,22.0000,-29.0000,1742.0000,-21.0000,-1637.0000,-0.8836,-0.0888,0.3455,-0.3032,158.9100,-78.7500,-76.1600,8.9700,-5.7200,-9.4600,0.0000,0.0000,-0.0000,1985.0000,1259.0000,1500.0000,2000.0000
198525.4410,2.0000,2000.0000,1000.0000,1394.0000,35.0000,14.0000,-50.0000,1581.0000,74.0000,-1787.0000,-0.8865,-0.0890,0.3429,-0.2977,159.0500,-78.8400,-76.3800,8.9900,-5.7300,-9.2800,0.0000,0.0000,-0.0000,1974.0000,1132.0000,1500.0000,2000.0000
198542.3230,2.0000,2000.0000,1000.0000,1395.0000,101.0000,6.0000,-67.0000,1735.0000,20.0000,-1290.0000,-0.8887,-0.1008,0.3377,-0.2933,159.0500,-78.8400,-76.3800,8.9900,-5.7300,-9.2800,0.0000,0.0000,-0.0000,1974.0000,1132.0000,1500.0000,2000.0000
198558.8250,2.0000,2000.0000,1000.0000,1395.0000,140.0000,0.0000,-82.0000,1630.0000,-61.0000,-1030.0000,-0.8900,-0.1202,0.3318,-0.2887,159.1900,-78.9300,-76.6000,8.9900,-5.7200,-9.0900,0.0000,0.0000,-0.0000,1974.0000,1132.0000,1500.0000,2000.0000
198575.7610,2.0000,2000.0000,1000.0000,1395.0000,159.0000,-13.0000,-91.0000,1507.0000,-6.0000,-893.0000,-0.8903,-0.1446,0.3257,-0.2835,159.3200,-79.0200,-76.8200,8.9500,-5.6900,-8.9000,0.0000,0.0000,-0.0000,1974.0000,1132.0000,1500.0000,2000.0000
198592.6440,2.0000,2000.0000,1000.0000,1395.0000,173.0000,-22.0000,-97.0000,1454.0000,-67.0000,-689.0000,-0.8897,-0.1713,0.3194,-0.2778,159.4500,-79.1000,-77.0200,8.8900,-5.6300,-8.7100,0.0000,0.0000,-0.0000,1974.0000,1132.0000,1500.0000,2000.0000
198609.7310,2.0000,2000.0000,1000.0000,1395.0000,189.0000,-27.0000,-101.0000,1543.0000,-275.0000,-247.0000,-0.8878,-0.2009,0.3125,-0.2717,159.5600,-79.1800,-77.2200,8.8100,-5.5400,-8.5500,0.0000,0.0000,-0.0000,1974.0000,1132.0000,1500.0000,2000.0000
198626.3770,2.0000,2000.0000,1000.0000,1395.0000,200.0000,-45.0000,-103.0000,1679.0000,-487.0000,559.0000,-0.8842,-0.2317,0.3067,-0.2655,159.6500,-79.2400,-77.4100,8.7000,-5.4000,-8.4000,0.0000,0.0000,-0.0000,1974.0000,1132.0000,1500.0000,2000.0000
198643.4420,2.0000,2000.0000,1422.0000,2000.0000,213.0000,-51.0000,-98.0000,1753.0000,-731.0000,1472.0000,-0.8786,-0.2650,0.3012,-0.2592,159.6500,-79.2400,-77.4100,8.7000,-5.4000,-8.4000,0.0000,0.0000,-0.0000,1113.0000,1035.0000,1500.0000,2000.0000
198660.5350,2.0000,2000.0000,1422.0000,2000.0000,227.0000,-63.0000,-93.0000,1719.0000,-1151.0000,2147.0000,-0.8706,-0.3000,0.2963,-0.2534,159.7300,-79.3000,-77.5900,8.5700,-5.1800,-8.3100,0.0000,0.0000,-0.0000,1113.0000,1035.0000,1500.0000,2000.0000
198677.3430,2.0000,2000.0000,1422.0000,2000.0000,221.0000,-67.0000,-82.0000,1753.0000,-883.0000,2320.0000,-0.8608,-0.3347,0.2923,-0.2482,159.8000,-79.3400,-77.7600,8.4200,-4.8700,-8.2400,0.0000,0.0000,-0.0000,1113.0000,1035.0000,1500.0000,2000.0000
198693.8800,2.0000,2000.0000,1422.0000,2000.0000,185.0000,-81.0000,-68.0000,1906.0000,-1111.0000,2981.0000,-0.8503,-0.3652,0.2910,-0.2428,159.8600,-79.3700,-77.9300,8.2800,-4.5500,-8.1800,0.0000,0.0000,-0.0000,1113.0000,1035.0000,1500.0000,2000.0000
198710.4930,2.0000,2000.0000,1422.0000,2000.0000,133.0000,-93.0000,-48.0000,1928.0000,-1001.0000,3497.0000,-0.8401,-0.3900,0.2931,-0.2371,159.9200,-79.4000,-78.0800,8.1600,-4.2100,-8.1500,0.0000,0.0000,-0.0000,1113.0000,1035.0000,1500.0000,2000.0000
198727.3220,2.0000,2000.0000,1382.0000,2000.0000,83.0000,-107.0000,-24.0000,1819.0000,-1017.0000,3570.0000,-0.8308,-0.4080,0.2998,-0.2310,159.9900,-79.4200,-78.2400,8.0600,-3.8600,-8.1400,0.0000,0.0000,-0.0000,1149.0000,1031.0000,1500.0000,2000.0000
198744.3230,2.0000,2000.0000,1382.0000,2000.0000,41.0000,-119.0000,-4.0000,1863.0000,-1135.0000,4020.0000,-0.8227,-0.4196,0.3109,-0.2247,159.9900,-79.4200,-78.2400,8.0600,-3.8600,-8.1400,0.0000,0.0000,-0.0000,1149.0000,1031.0000,1500.0000,2000.0000
198761.0810,2.0000,2000.0000,1382.0000,2000.0000,11.0000,-130.0000,13.0000,1929.0000,-1012.0000,4628.0000,-0.8152,-0.4264,0.3256,-0.2182,160.0600,-79.4500,-78.3900,7.9700,-3.5000,-8.1400,0.0000,0.0000,-0.0000,1149.0000,1031.0000,1500.0000,2000.0000
198777.8160,2.0000,2000.0000,1382.0000,2000.0000,-12.0000,-141.0000,28.0000,2102.0000,-1237.0000,5429.0000,-0.8082,-0.4291,0.3433,-0.2117,160.1300,-79.4700,-78.5300,7.8700,-3.1100,-8.1700,0.0000,0.0000,-0.0000,1149.0000,1031.0000,1500.0000,2000.0000
198794.6510,2.0000,2000.0000,1382.0000,2000.0000,-31.0000,-144.0000,37.0000,2063.0000,-1221.0000,5594.0000,-0.8012,-0.4291,0.3630,-0.2052,160.2100,-79.4800,-78.6800,7.7500,-2.6600,-8.2100,0.0000,0.0000,-0.0000,1149.0000,1031.0000,1500.0000,2000.0000
198811.6650,2.0000,2000.0000,1382.0000,2000.0000,-42.0000,-142.0000,47.0000,2116.0000,-993.0000,5958.0000,-0.7945,-0.4265,0.3838,-0.1991,160.2800,-79.4800,-78.8200,7.6100,-2.2200,-8.2600,0.0000,0.0000,-0.0000,1149.0000,1031.0000,1500.0000,2000.0000
198828.2970,2.0000,2000.0000,1000.0000,1462.0000,-58.0000,-138.0000,52.0000,2125.0000,-817.0000,6185.0000,-0.7881,-0.4219,0.4044,-0.1931,160.2800,-79.4800,-78.8200,7.6100,-2.2200,-8.2600,0.0000,0.0000,-0.0000,1974.0000,1066.0000,1500.0000,2000.0000
198845.1610,2.0000,2000.0000,1000.0000,1461.0000,-63.0000,-138.0000,53.0000,2105.0000,-789.0000,6183.0000,-0.7820,-0.4154,0.4254,-0.1869,160.3500,-79.4800,-78.9600,7.4200,-1.7700,-8.3400,0.0000,0.0000,-0.0000,1974.0000,1066.0000,1500.0000,2000.0000
198862.0530,2.0000,2000.0000,1000.0000,1461.0000,-48.0000,-138.0000,49.0000,2050.0000,-634.0000,5842.0000,-0.7753,-0.4093,0.4458,-0.1808,160.4700,-79.5000,-79.1200,7.3200,-1.3400,-8.4300,0.0000,0.0000,-0.0000,1974.0000,1066.0000,1500.0000,2000.0000
198878.9910,2.0000,2000.0000,1000.0000,1461.0000,-24.0000,-134.0000,44.0000,2022.0000,-368.0000,6193.0000,-0.7670,-0.4057,0.4651,-0.1756,160.6800,-79.5300,-79.3000,7.4100,-0.9700,-8.5300,0.0000,0.0000,-0.0000,1974.0000,1066.0000,1500.0000,2000.0000
198895.7850,2.0000,2000.0000,1000.0000,1461.0000,0.0000,-122.0000,36.0000,2075.0000,-437.0000,6459.0000,-0.7576,-0.4050,0.4822,-0.1717,160.8800,-79.5600,-79.4900,7.4300,-0.6100,-8.6300,0.0000,0.0000,-0.0000,1974.0000,1066.0000,1500.0000,2000.0000
198912.7050,2.0000,2000.0000,1000.0000,1461.0000,21.0000,-104.0000,29.0000,2033.0000,-317.0000,6426.0000,-0.7480,-0.4069,0.4963,-0.1694,161.0700,-79.5800,-79.6700,7.4200,-0.2600,-8.7300,0.0000,0.0000,-0.0000,1974.0000,1066.0000,1500.0000,2000.0000
198929.4960,2.0000,2000.0000,1000.0000,1340.0000,37.0000,-77.0000,21.0000,2008.0000,-302.0000,6401.0000,-0.7388,-0.4108,0.5068,-0.1692,161.0700,-79.5800,-79.6700,7.4200,-0.2600,-8.7300,0.0000,0.0000,-0.0000,1831.0000,1329.0000,1500.0000,2000.0000
198946.0840,2.0000,2000.0000,1000.0000,1340.0000,55.0000,-58.0000,11.0000,1928.0000,-147.0000,5745.0000,-0.7307,-0.4163,0.5136,-0.1705,161.2600,-79.5900,-79.8600,7.3900,0.0500,-8.8200,0.0000,0.0000,-0.0000,1831.0000,1329.0000,1500.0000,2000.0000
198962.7580,2.0000,2000.0000,1000.0000,1340.0000,77.0000,-40.0000,3.0000,1883.0000,-175.0000,5084.0000,-0.7230,-0.4238,0.5174,-0.1732,161.4600,-79.6000,-80.0500,7.3900,0.3400,-8.9000,0.0000,0.0000,-0.0000,1831.0000,1329.0000,1500.0000,2000.0000
198979.4430,2.0000,2000.0000,1000.0000,1340.0000,97.0000,-9.0000,-6.0000,1834.0000,-95.0000,4607.0000,-0.7158,-0.4337,0.5176,-0.1780,161.6800,-79.6100,-80.2500,7.4500,0.6200,-8.9500,0.0000,0.0000,-0.0000,1831.0000,1329.0000,1500.0000,2000.0000
