t_ms,msp,motor,servo0,servo1,gyro_p,gyro_q,gyro_r,acc_x,acc_y,acc_z,qw,qx,qy,qz,pos_n,pos_e,pos_d,vel_n,vel_e,vel_d,tgtpos_n,tgtpos_e,tgtpos_d,rcData0,rcData1,rcData2,rcData3
235019.1260,3.0000,1643.0000,1444.0000,1512.0000,14.0000,3.0000,-7.0000,-233.0000,-187.0000,725.0000,-0.0834,0.1566,-0.0176,-0.9840,159.7800,-22.7900,-62.1700,-19.4300,-0.1600,5.3800,0.0000,0.0000,-0.0000,1500.0000,1500.0000,1500.0000,1663.0000
235035.8370,3.0000,1643.0000,1444.0000,1510.0000,12.0000,2.0000,-7.0000,-218.0000,-232.0000,893.0000,-0.0848,0.1570,-0.0193,-0.9838,159.3300,-22.7900,-62.0500,-19.4700,-0.1800,5.5100,0.0000,0.0000,-0.0000,1500.0000,1500.0000,1500.0000,1664.0000
235052.4090,3.0000,1644.0000,1441.0000,1509.0000,9.0000,3.0000,-9.0000,-332.0000,-140.0000,1236.0000,-0.0863,0.1572,-0.0211,-0.9836,158.8900,-22.7900,-61.9300,-19.5000,-0.2100,5.6400,0.0000,0.0000,-0.0000,1500.0000,1500.0000,1500.0000,1664.0000
235069.0390,3.0000,1644.0000,1440.0000,1508.0000,8.0000,3.0000,-9.0000,-302.0000,-199.0000,1197.0000,-0.0877,0.1575,-0.0225,-0.9834,158.4700,-22.7900,-61.8000,-19.5200,-0.2400,5.7300,0.0000,0.0000,-0.0000,1500.0000,1500.0000,1500.0000,1664.0000
235085.7410,3.0000,1644.0000,1441.0000,1509.0000,11.0000,3.0000,-7.0000,-319.0000,-219.0000,1069.0000,-0.0888,0.1579,-0.0236,-0.9832,158.0500,-22.7900,-61.6700,-19.5300,-0.2600,5.8100,0.0000,0.0000,-0.0000,1500.0000,1500.0000,1500.0000,1664.0000
235102.4610,3.0000,1644.0000,1446.0000,1512.0000,16.0000,1.0000,-1.0000,-357.0000,-248.0000,1127.0000,-0.0899,0.1584,-0.0256,-0.9829,157.6200,-22.7900,-61.5400,-19.5400,-0.2900,5.9000,0.0000,0.0000,-0.0000,1500.0000,1500.0000,1500.0000,1664.0000
235119.2880,3.0000,1644.0000,1448.0000,1514.0000,20.0000,2.0000,-1.0000,-400.0000,-199.0000,1499.0000,-0.0903,0.1586,-0.0284,-0.9828,157.6200,-22.7900,-61.5400,-19.5400,-0.2900,5.9000,0.0000,0.0000,-0.0000,1500.0000,1500.0000,1500.0000,1664.0000
235135.9280,3.0000,1644.0000,1442.0000,1508.0000,8.0000,2.0000,-3.0000,-321.0000,-144.0000,1441.0000,-0.0910,0.1589,-0.0307,-0.9826,157.1800,-22.8000,-61.4100,-19.5800,-0.3300,5.9700,0.0000,0.0000,-0.0000,1500.0000,1500.0000,1500.0000,1664.0000
235152.7140,3.0000,1644.0000,1435.0000,1503.0000,-2.0000,2.0000,5.0000,-223.0000,-190.0000,700.0000,-0.0908,0.1595,-0.0313,-0.9825,156.7500,-22.8000,-61.2800,-19.6100,-0.3500,6.0300,0.0000,0.0000,-0.0000,1500.0000,1500.0000,1500.0000,1664.0000
235169.4610,3.0000,1644.0000,1433.0000,1499.0000,-7.0000,2.0000,0.0000,-274.0000,-77.0000,-145.0000,-0.0901,0.1600,-0.0308,-0.9825,156.3200,-22.8000,-61.1500,-19.6200,-0.3800,6.1600,0.0000,0.0000,-0.0000,1500.0000,1500.0000,1500.0000,1664.0000
235186.3410,3.0000,1644.0000,1438.0000,1502.0000,0.0000,-1.0000,-2.0000,-382.0000,-26.0000,-779.0000,-0.0900,0.1606,-0.0303,-0.9824,155.9000,-22.8100,-61.0100,-19.5800,-0.3900,6.3800,0.0000,0.0000,-0.0000,1500.0000,1500.0000,1500.0000,1664.0000
235203.1880,3.0000,1644.0000,1449.0000,1511.0000,16.0000,-3.0000,-10.0000,-441.0000,-36.0000,144.0000,-0.0911,0.1609,-0.0319,-0.9822,155.4700,-22.8100,-60.8700,-19.5400,-0.3900,6.6000,0.0000,0.0000,-0.0000,1500.0000,1500.0000,1500.0000,1664.0000
235219.9490,3.0000,1644.0000,1456.0000,1514.0000,23.0000,-6.0000,-11.0000,-359.0000,-242.0000,1347.0000,-0.0931,0.1603,-0.0348,-0.9821,155.4700,-22.8100,-60.8700,-19.5400,-0.3900,6.6000,0.0000,0.0000,-0.0000,1500.0000,1500.0000,1500.0000,1664.0000
235236.5700,3.0000,1644.0000,1451.0000,1511.0000,18.0000,-5.0000,-9.0000,-308.0000,-465.0000,1870.0000,-0.0948,0.1598,-0.0377,-0.9819,155.0300,-22.8200,-60.7200,-19.5700,-0.4200,6.7000,0.0000,0.0000,-0.0000,1500.0000,1500.0000,1500.0000,1664.0000
235253.2770,3.0000,1644.0000,1446.0000,1508.0000,11.0000,-3.0000,-2.0000,-278.0000,-582.0000,1881.0000,-0.0958,0.1593,-0.0398,-0.9818,154.6000,-22.8300,-60.5800,-19.6100,-0.4800,6.7300,0.0000,0.0000,-0.0000,1500.0000,1500.0000,1500.0000,1664.0000
235269.9890,3.0000,1644.0000,1446.0000,1510.0000,14.0000,-1.0000,4.0000,-344.0000,-420.0000,1577.0000,-0.0959,0.1594,-0.0418,-0.9817,154.1800,-22.8300,-60.4300,-19.6400,-0.5600,6.7600,0.0000,0.0000,-0.0000,1500.0000,1500.0000,1500.0000,1664.0000
235287.0020,3.0000,1644.0000,1449.0000,1511.0000,17.0000,-2.0000,5.0000,-422.0000,-272.0000,1339.0000,-0.0956,0.1593,-0.0443,-0.9816,153.7600,-22.8400,-60.2900,-19.6400,-0.6100,6.8200,0.0000,0.0000,-0.0000,1500.0000,1500.0000,1500.0000,1664.0000
235303.6580,3.0000,1644.0000,1450.0000,1512.0000,18.0000,-3.0000,6.0000,-436.0000,-171.0000,1444.0000,-0.0951,0.1593,-0.0474,-0.9815,153.7600,-22.8400,-60.2900,-19.6400,-0.6100,6.8200,0.0000,0.0000,-0.0000,1500.0000,1500.0000,1500.0000,1664.0000
235320.1910,3.0000,1644.0000,1451.0000,1513.0000,19.0000,-2.0000,8.0000,-363.0000,-240.0000,1468.0000,-0.0944,0.1591,-0.0506,-0.9814,153.3500,-22.8500,-60.1400,-19.6400,-0.6500,6.8800,0.0000,0.0000,-0.0000,1500.0000,1500.0000,1500.0000,1664.0000
235336.6940,3.0000,1645.0000,1448.0000,1512.0000,16.0000,-1.0000,9.0000,-331.0000,-259.0000,1552.0000,-0.0935,0.1590,-0.0534,-0.9814,152.9100,-22.8600,-59.9900,-19.6700,-0.6800,6.9400,0.0000,0.0000,-0.0000,1500.0000,1500.0000,1500.0000,1665.0000
235353.5010,3.0000,1644.0000,1443.0000,1509.0000,8.0000,1.0000,9.0000,-342.0000,-190.0000,1663.0000,-0.0923,0.1594,-0.0557,-0.9813,152.4900,-22.8800,-59.8400,-19.6900,-0.7300,6.9900,0.0000,0.0000,-0.0000,1500.0000,1500.0000,1500.0000,1664.0000
235370.1670,3.0000,1644.0000,1441.0000,1505.0000,2.0000,0.0000,7.0000,-326.0000,-177.0000,1649.0000,-0.0912,0.1597,-0.0568,-0.9813,152.0600,-22.8900,-59.6900,-19.7000,-0.7600,7.0300,0.0000,0.0000,-0.0000,1500.0000,1500.0000,1500.0000,1664.0000
235386.8250,3.0000,1644.0000,1435.0000,1499.0000,-8.0000,1.0000,6.0000,-398.0000,-131.0000,1809.0000,-0.0902,0.1602,-0.0569,-0.9813,151.6600,-22.9000,-59.5400,-19.7100,-0.8000,7.0800,0.0000,0.0000,-0.0000,1500.0000,1500.0000,1500.0000,1664.0000
235403.5320,3.0000,1644.0000,1429.0000,1495.0000,-18.0000,1.0000,4.0000,-362.0000,-126.0000,1981.0000,-0.0891,0.1608,-0.0554,-0.9814,151.6600,-22.9000,-59.5400,-19.7100,-0.8000,7.0800,0.0000,0.0000,-0.0000,1500.0000,1500.0000,1500.0000,1664.0000
235420.0710,3.0000,1644.0000,1423.0000,1489.0000,-29.0000,2.0000,1.0000,-330.0000,-145.0000,2005.0000,-0.0880,0.1616,-0.0522,-0.9815,151.2400,-22.9200,-59.3900,-19.7200,-0.8300,7.1000,0.0000,0.0000,-0.0000,1500.0000,1500.0000,1500.0000,1664.0000
235436.5450,3.0000,1644.0000,1421.0000,1487.0000,-34.0000,2.0000,-2.0000,-345.0000,-102.0000,2002.0000,-0.0872,0.1626,-0.0482,-0.9817,150.8100,-22.9300,-59.2400,-19.7700,-0.8700,7.1100,0.0000,0.0000,-0.0000,1500.0000,1500.0000,1500.0000,1665.0000
235453.1770,3.0000,1644.0000,1421.0000,1487.0000,-33.0000,1.0000,-3.0000,-407.0000,-118.0000,1992.0000,-0.0865,0.1636,-0.0433,-0.9818,150.3800,-22.9500,-59.0800,-19.8000,-0.9000,7.1300,0.0000,0.0000,-0.0000,1500.0000,1500.0000,1500.0000,1664.0000
235469.7660,3.0000,1643.0000,1427.0000,1491.0000,-25.0000,0.0000,-5.0000,-399.0000,-208.0000,2037.0000,-0.0864,0.1640,-0.0387,-0.9819,149.9700,-22.9700,-58.9300,-19.8100,-0.9300,7.1400,0.0000,0.0000,-0.0000,1500.0000,1500.0000,1500.0000,1663.0000
235486.4050,3.0000,1643.0000,1437.0000,1501.0000,-9.0000,0.0000,-7.0000,-485.0000,-115.0000,2385.0000,-0.0871,0.1642,-0.0360,-0.9819,149.5700,-22.9800,-58.7800,-19.8200,-0.9600,7.1400,0.0000,0.0000,-0.0000,1500.0000,1500.0000,1500.0000,1664.0000
235503.2620,3.0000,1644.0000,1440.0000,1502.0000,-5.0000,-1.0000,-12.0000,-497.0000,-31.0000,2476.0000,-0.0884,0.1642,-0.0348,-0.9818,149.5700,-22.9800,-58.7800,-19.8200,-0.9600,7.1400,0.0000,0.0000,-0.0000,1500.0000,1500.0000,1500.0000,1664.0000
235519.9770,3.0000,1644.0000,1438.0000,1502.0000,-5.0000,1.0000,-14.0000,-482.0000,-13.0000,2491.0000,-0.0903,0.1643,-0.0340,-0.9817,149.1600,-23.0000,-58.6300,-19.8400,-0.9900,7.1100,0.0000,0.0000,-0.0000,1500.0000,1500.0000,1500.0000,1664.0000
235536.6220,3.0000,1644.0000,1435.0000,1499.0000,-8.0000,-1.0000,-14.0000,-405.0000,-172.0000,2709.0000,-0.0922,0.1645,-0.0326,-0.9815,148.7200,-23.0200,-58.4700,-19.8900,-1.0100,7.0700,0.0000,0.0000,-0.0000,1500.0000,1500.0000,1500.0000,1664.0000
235553.2710,3.0000,1644.0000,1431.0000,1497.0000,-13.0000,1.0000,-14.0000,-417.0000,-222.0000,2999.0000,-0.0940,0.1647,-0.0309,-0.9814,148.3000,-23.0400,-58.3200,-19.9300,-1.0500,7.0100,0.0000,0.0000,-0.0000,1500.0000,1500.0000,1500.0000,1664.0000
235569.9680,3.0000,1644.0000,1428.0000,1496.0000,-15.0000,3.0000,-16.0000,-426.0000,-148.0000,3381.0000,-0.0958,0.1654,-0.0284,-0.9812,147.8800,-23.0600,-58.1700,-19.9700,-1.1000,6.9100,0.0000,0.0000,-0.0000,1500.0000,1500.0000,1500.0000,1664.0000
235586.6580,3.0000,1644.0000,1428.0000,1496.0000,-17.0000,3.0000,-19.0000,-434.0000,-135.0000,3331.0000,-0.0979,0.1660,-0.0260,-0.9809,147.8800,-23.0600,-58.1700,-19.9700,-1.1000,6.9100,0.0000,0.0000,-0.0000,1500.0000,1500.0000,1500.0000,1664.0000
235603.3460,3.0000,1644.0000,1426.0000,1496.0000,-18.0000,5.0000,-21.0000,-462.0000,-101.0000,3178.0000,-0.1003,0.1670,-0.0231,-0.9806,147.4800,-23.0800,-58.0200,-20.0000,-1.1300,6.7900,0.0000,0.0000,-0.0000,1500.0000,1500.0000,1500.0000,1664.0000
235620.1340,3.0000,1644.0000,1427.0000,1497.0000,-16.0000,6.0000,-23.0000,-357.0000,-210.0000,2998.0000,-0.1030,0.1681,-0.0201,-0.9802,147.0600,-23.1000,-57.8800,-20.0500,-1.1600,6.6900,0.0000,0.0000,-0.0000,1500.0000,1500.0000,1500.0000,1664.0000
235636.6630,3.0000,1644.0000,1430.0000,1502.0000,-10.0000,6.0000,-24.0000,-330.0000,-257.0000,2665.0000,-0.1061,0.1691,-0.0178,-0.9797,146.6200,-23.1200,-57.7300,-20.1100,-1.2000,6.6100,0.0000,0.0000,-0.0000,1500.0000,1500.0000,1500.0000,1664.0000
235653.3450,3.0000,1644.0000,1433.0000,1507.0000,-3.0000,8.0000,-27.0000,-414.0000,-215.0000,2308.0000,-0.1096,0.1704,-0.0165,-0.9791,146.2000,-23.1500,-57.5900,-20.1600,-1.2400,6.5700,0.0000,0.0000,-0.0000,1500.0000,1500.0000,1500.0000,1664.0000
235670.0730,3.0000,1644.0000,1440.0000,1512.0000,9.0000,6.0000,-27.0000,-400.0000,-284.0000,1718.0000,-0.1134,0.1718,-0.0166,-0.9784,145.7800,-23.1700,-57.4400,-20.1600,-1.2700,6.5800,0.0000,0.0000,-0.0000,1500.0000,1500.0000,1500.0000,1664.0000
235686.8390,3.0000,1643.0000,1440.0000,1512.0000,10.0000,6.0000,-25.0000,-380.0000,-357.0000,1309.0000,-0.1173,0.1727,-0.0179,-0.9778,145.7800,-23.1700,-57.4400,-20.1600,-1.2700,6.5800,0.0000,0.0000,-0.0000,1500.0000,1500.0000,1500.0000,1663.0000
235703.4600,3.0000,1643.0000,1437.0000,1509.0000,5.0000,6.0000,-22.0000,-372.0000,-443.0000,1057.0000,-0.1205,0.1736,-0.0193,-0.9772,145.3800,-23.1900,-57.3000,-20.1400,-1.3100,6.6400,0.0000,0.0000,-0.0000,1500.0000,1500.0000,1500.0000,1664.0000
235720.1410,3.0000,1644.0000,1440.0000,1512.0000,12.0000,6.0000,-17.0000,-336.0000,-482.0000,1112.0000,-0.1232,0.1743,-0.0210,-0.9767,144.9600,-23.2200,-57.1500,-20.1300,-1.3500,6.7400,0.0000,0.0000,-0.0000,1500.0000,1500.0000,1500.0000,1664.0000
235736.6710,3.0000,1644.0000,1437.0000,1511.0000,8.0000,8.0000,-12.0000,-352.0000,-462.0000,850.0000,-0.1251,0.1753,-0.0231,-0.9763,144.5200,-23.2500,-57.0000,-20.1400,-1.4000,6.8300,0.0000,0.0000,-0.0000,1500.0000,1500.0000,1500.0000,1664.0000
235753.3440,3.0000,1644.0000,1437.0000,1509.0000,6.0000,5.0000,-5.0000,-405.0000,-289.0000,1144.0000,-0.1261,0.1762,-0.0246,-0.9759,144.1000,-23.2700,-56.8500,-20.1400,-1.4400,6.9300,0.0000,0.0000,-0.0000,1500.0000,1500.0000,1500.0000,1664.0000
235769.9450,3.0000,1644.0000,1440.0000,1512.0000,11.0000,6.0000,0.0000,-380.0000,-366.0000,983.0000,-0.1267,0.1767,-0.0267,-0.9757,144.1000,-23.2700,-56.8500,-20.1400,-1.4400,6.9300,0.0000,0.0000,-0.0000,1500.0000,1500.0000,1500.0000,1664.0000
235786.9070,2.0000,1737.0000,1339.0000,2000.0000,18.0000,4.0000,-1.0000,-464.0000,-291.0000,562.0000,-0.1270,0.1773,-0.0292,-0.9755,143.6900,-23.3000,-56.7000,-20.1300,-1.4700,7.0100,0.0000,0.0000,-0.0000,1190.0000,1029.0000,1500.0000,1753.0000
235803.6470,2.0000,1738.0000,1339.0000,2000.0000,17.0000,-3.0000,4.0000,-532.0000,-277.0000,184.0000,-0.1270,0.1773,-0.0321,-0.9754,143.2900,-23.3300,-56.5500,-20.0900,-1.5000,7.1300,0.0000,0.0000,-0.0000,1190.0000,1029.0000,1500.0000,1753.0000
235820.2860,2.0000,1738.0000,1339.0000,2000.0000,6.0000,-25.0000,9.0000,-366.0000,-456.0000,121.0000,-0.1262,0.1757,-0.0341,-0.9757,142.8700,-23.3600,-56.3900,-20.0600,-1.5100,7.3000,0.0000,0.0000,-0.0000,1190.0000,1029.0000,1500.0000,1753.0000
235836.9250,2.0000,1738.0000,1339.0000,2000.0000,-26.0000,-59.0000,19.0000,-377.0000,-376.0000,620.0000,-0.1239,0.1701,-0.0325,-0.9771,142.4400,-23.3900,-56.2300,-20.0600,-1.5400,7.4600,0.0000,0.0000,-0.0000,1190.0000,1029.0000,1500.0000,1753.0000
235853.8490,2.0000,1738.0000,1339.0000,2000.0000,-73.0000,-100.0000,28.0000,-559.0000,-377.0000,1682.0000,-0.1195,0.1599,-0.0252,-0.9795,142.0300,-23.4200,-56.0700,-20.0700,-1.5700,7.5600,0.0000,0.0000,-0.0000,1190.0000,1029.0000,1500.0000,1753.0000
235870.5690,2.0000,1738.0000,1339.0000,2000.0000,-116.0000,-135.0000,38.0000,-658.0000,-430.0000,3422.0000,-0.1128,0.1453,-0.0096,-0.9829,142.0300,-23.4200,-56.0700,-20.0700,-1.5700,7.5600,0.0000,0.0000,-0.0000,1190.0000,1029.0000,1500.0000,1753.0000
235887.9070,2.0000,1967.0000,1000.0000,1538.0000,-144.0000,-168.0000,42.0000,-580.0000,-555.0000,5279.0000,-0.1041,0.1250,0.0119,-0.9866,141.6100,-23.4500,-55.9100,-20.0900,-1.6100,7.5200,0.0000,0.0000,-0.0000,1888.0000,1076.0000,1500.0000,1971.0000
235904.6500,2.0000,1968.0000,1000.0000,1537.0000,-143.0000,-193.0000,39.0000,-322.0000,-536.0000,7285.0000,-0.0953,0.1012,0.0350,-0.9897,141.2200,-23.4800,-55.7500,-20.1400,-1.6400,7.2900,0.0000,0.0000,-0.0000,1888.0000,1076.0000,1500.0000,1971.0000
235921.4020,2.0000,1968.0000,1000.0000,1537.0000,-113.0000,-203.0000,30.0000,167.0000,-707.0000,9367.0000,-0.0877,0.0745,0.0560,-0.9918,140.8000,-23.5100,-55.5900,-20.2500,-1.6600,6.8400,0.0000,0.0000,-0.0000,1888.0000,1076.0000,1500.0000,1971.0000
235938.0340,2.0000,1968.0000,1000.0000,1537.0000,-52.0000,-199.0000,16.0000,617.0000,-768.0000,11230.0000,-0.0825,0.0466,0.0702,-0.9930,140.3500,-23.5400,-55.4400,-20.4000,-1.6500,6.1800,0.0000,0.0000,-0.0000,1888.0000,1076.0000,1500.0000,1971.0000
235955.0720,2.0000,1968.0000,1000.0000,1537.0000,2.0000,-189.0000,-4.0000,953.0000,-808.0000,12907.0000,-0.0802,0.0182,0.0758,-0.9937,139.9300,-23.5700,-55.3000,-20.5300,-1.6000,5.3200,0.0000,0.0000,-0.0000,1888.0000,1076.0000,1500.0000,1971.0000
235971.8420,2.0000,1968.0000,1000.0000,1537.0000,37.0000,-169.0000,-20.0000,1219.0000,-786.0000,14018.0000,-0.0803,-0.0082,0.0749,-0.9939,139.9300,-23.5700,-55.3000,-20.5300,-1.6000,5.3200,0.0000,0.0000,-0.0000,1888.0000,1076.0000,1500.0000,1971.0000
235988.8120,2.0000,1727.0000,1346.0000,2000.0000,57.0000,-147.0000,-33.0000,1315.0000,-951.0000,14355.0000,-0.0827,-0.0323,0.0698,-0.9936,139.5200,-23.6000,-55.1800,-20.6100,-1.5200,4.3000,0.0000,0.0000,-0.0000,1184.0000,1030.0000,1500.0000,1742.0000
236005.6860,2.0000,1727.0000,1346.0000,2000.0000,70.0000,-124.0000,-44.0000,1152.0000,-909.0000,13949.0000,-0.0867,-0.0530,0.0617,-0.9929,139.1200,-23.6300,-55.0800,-20.6100,-1.4400,3.1900,0.0000,0.0000,-0.0000,1184.0000,1030.0000,1500.0000,1742.0000
236022.7810,2.0000,1727.0000,1346.0000,2000.0000,42.0000,-109.0000,-45.0000,823.0000,-794.0000,12936.0000,-0.0917,-0.0713,0.0537,-0.9918,138.6900,-23.6600,-55.0000,-20.5600,-1.4000,2.1000,0.0000,0.0000,-0.0000,1184.0000,1030.0000,1500.0000,1742.0000
236039.7540,2.0000,1727.0000,1346.0000,2000.0000,-12.0000,-95.0000,-38.0000,582.0000,-921.0000,12381.0000,-0.0967,-0.0868,0.0523,-0.9901,138.2600,-23.6900,-54.9400,-20.4600,-1.3900,1.1000,0.0000,0.0000,-0.0000,1184.0000,1030.0000,1500.0000,1742.0000
236056.5840,2.0000,1727.0000,1346.0000,2000.0000,-53.0000,-90.0000,-30.0000,367.0000,-1051.0000,11364.0000,-0.1013,-0.0998,0.0582,-0.9881,137.8300,-23.7200,-54.9000,-20.2800,-1.3900,0.1800,0.0000,0.0000,-0.0000,1184.0000,1030.0000,1500.0000,1742.0000
236073.5560,2.0000,1727.0000,1346.0000,2000.0000,-63.0000,-95.0000,-17.0000,212.0000,-1002.0000,10125.0000,-0.1051,-0.1127,0.0681,-0.9857,137.8300,-23.7200,-54.9000,-20.2800,-1.3900,0.1800,0.0000,0.0000,-0.0000,1184.0000,1030.0000,1500.0000,1742.0000
236090.2360,2.0000,1912.0000,1000.0000,1548.0000,-75.0000,-103.0000,-8.0000,125.0000,-1016.0000,9650.0000,-0.1072,-0.1260,0.0795,-0.9830,137.4300,-23.7400,-54.8700,-20.0700,-1.3800,-0.5900,0.0000,0.0000,-0.0000,1874.0000,1079.0000,1500.0000,1918.0000
236106.8430,2.0000,1912.0000,1000.0000,1548.0000,-60.0000,-113.0000,2.0000,503.0000,-1130.0000,10565.0000,-0.1079,-0.1402,0.0910,-0.9800,137.0400,-23.7700,-54.8600,-19.8500,-1.3600,-1.2400,0.0000,0.0000,-0.0000,1874.0000,1079.0000,1500.0000,1918.0000
236123.8700,2.0000,1912.0000,1000.0000,1548.0000,-29.0000,-106.0000,1.0000,951.0000,-1140.0000,11946.0000,-0.1075,-0.1552,0.0998,-0.9769,136.6400,-23.7900,-54.8600,-19.6000,-1.2500,-1.9700,0.0000,0.0000,-0.0000,1874.0000,1079.0000,1500.0000,1918.0000
236140.5330,2.0000,1912.0000,1000.0000,1548.0000,16.0000,-102.0000,-3.0000,1174.0000,-985.0000,12390.0000,-0.1066,-0.1699,0.1023,-0.9743,136.2200,-23.8200,-54.8700,-19.3200,-1.0500,-2.8600,0.0000,0.0000,-0.0000,1874.0000,1079.0000,1500.0000,1918.0000
236157.5590,2.0000,1912.0000,1000.0000,1548.0000,49.0000,-96.0000,-13.0000,1222.0000,-863.0000,12303.0000,-0.1058,-0.1849,0.0989,-0.9720,135.8300,-23.8400,-54.9000,-19.0200,-0.8500,-3.7600,0.0000,0.0000,-0.0000,1874.0000,1079.0000,1500.0000,1918.0000
236174.5450,2.0000,1912.0000,1000.0000,1548.0000,66.0000,-88.0000,-22.0000,1136.0000,-792.0000,11889.0000,-0.1055,-0.1991,0.0913,-0.9700,135.8300,-23.8400,-54.9000,-19.0200,-0.8500,-3.7600,0.0000,0.0000,-0.0000,1874.0000,1079.0000,1500.0000,1918.0000
236191.4680,2.0000,1999.0000,1158.0000,2000.0000,76.0000,-81.0000,-28.0000,1074.0000,-900.0000,11219.0000,-0.1061,-0.2125,0.0818,-0.9679,135.4600,-23.8500,-54.9400,-18.6900,-0.6500,-4.6300,0.0000,0.0000,-0.0000,1359.0000,1018.0000,1500.0000,2000.0000
236208.3680,2.0000,2000.0000,1158.0000,2000.0000,90.0000,-82.0000,-34.0000,970.0000,-775.0000,10254.0000,-0.1070,-0.2256,0.0705,-0.9658,135.1000,-23.8600,-55.0100,-18.3500,-0.5000,-5.4300,0.0000,0.0000,-0.0000,1359.0000,1018.0000,1500.0000,2000.0000
236225.3590,2.0000,2000.0000,1158.0000,2000.0000,102.0000,-82.0000,-40.0000,937.0000,-757.0000,9901.0000,-0.1081,-0.2391,0.0565,-0.9633,134.7300,-23.8700,-55.0800,-17.9900,-0.3700,-6.1200,0.0000,0.0000,-0.0000,1359.0000,1018.0000,1500.0000,2000.0000
236242.0900,2.0000,2000.0000,1158.0000,2000.0000,80.0000,-89.0000,-36.0000,988.0000,-844.0000,9459.0000,-0.1092,-0.2528,0.0432,-0.9604,134.3600,-23.8800,-55.1700,-17.6100,-0.2700,-6.7500,0.0000,0.0000,-0.0000,1359.0000,1018.0000,1500.0000,2000.0000
236259.1090,2.0000,2000.0000,1158.0000,2000.0000,35.0000,-106.0000,-25.0000,912.0000,-750.0000,8711.0000,-0.1107,-0.2680,0.0353,-0.9564,134.0100,-23.8800,-55.2600,-17.2400,-0.2100,-7.3200,0.0000,0.0000,-0.0000,1359.0000,1018.0000,1500.0000,2000.0000
236275.7830,2.0000,1999.0000,1047.0000,1989.0000,-13.0000,-121.0000,-13.0000,838.0000,-816.0000,8496.0000,-0.1126,-0.2840,0.0352,-0.9515,133.6700,-23.8800,-55.3700,-16.8700,-0.1600,-7.8200,0.0000,0.0000,-0.0000,1907.0000,1067.0000,1500.0000,1998.0000
236292.6980,2.0000,1997.0000,1000.0000,1527.0000,-38.0000,-145.0000,-1.0000,951.0000,-1132.0000,9301.0000,-0.1142,-0.3027,0.0411,-0.9453,133.6700,-23.8800,-55.3700,-16.8700,-0.1600,-7.8200,0.0000,0.0000,-0.0000,1907.0000,1067.0000,1500.0000,1998.0000
236309.5510,2.0000,1997.0000,1000.0000,1527.0000,-43.0000,-152.0000,3.0000,988.0000,-1223.0000,9988.0000,-0.1152,-0.3226,0.0498,-0.9382,133.3400,-23.8900,-55.4800,-16.4700,-0.1100,-8.3200,0.0000,0.0000,-0.0000,1907.0000,1067.0000,1500.0000,1998.0000
236326.4250,2.0000,1997.0000,1000.0000,1527.0000,-16.0000,-155.0000,2.0000,1007.0000,-936.0000,10099.0000,-0.1155,-0.3432,0.0568,-0.9304,133.0100,-23.8900,-55.6000,-15.9800,-0.0500,-8.8800,0.0000,0.0000,-0.0000,1907.0000,1067.0000,1500.0000,1998.0000
236343.3510,2.0000,1997.0000,1000.0000,1527.0000,21.0000,-153.0000,-3.0000,1140.0000,-908.0000,10449.0000,-0.1147,-0.3645,0.0595,-0.9222,132.6800,-23.8900,-55.7300,-15.4700,0.0400,-9.4100,0.0000,0.0000,-0.0000,1907.0000,1067.0000,1500.0000,1998.0000
236360.1430,2.0000,1997.0000,1000.0000,1527.0000,55.0000,-143.0000,-9.0000,1326.0000,-909.0000,11013.0000,-0.1124,-0.3852,0.0564,-0.9142,132.3600,-23.8800,-55.8800,-14.9100,0.1700,-9.9800,0.0000,0.0000,-0.0000,1907.0000,1067.0000,1500.0000,1998.0000
236376.9270,2.0000,1997.0000,1000.0000,1527.0000,74.0000,-128.0000,-15.0000,1464.0000,-969.0000,11467.0000,-0.1093,-0.4045,0.0492,-0.9067,132.0700,-23.8800,-56.0300,-14.2900,0.2800,-10.5700,0.0000,0.0000,-0.0000,1907.0000,1067.0000,1500.0000,1998.0000
236393.9810,2.0000,2000.0000,1000.0000,1517.0000,82.0000,-114.0000,-22.0000,1390.0000,-887.0000,11116.0000,-0.1064,-0.4219,0.0396,-0.8995,132.0700,-23.8800,-56.0300,-14.2900,0.2800,-10.5700,0.0000,0.0000,-0.0000,1937.0000,1047.0000,1500.0000,2000.0000
236410.7180,2.0000,2000.0000,1000.0000,1517.0000,90.0000,-101.0000,-30.0000,1208.0000,-694.0000,10286.0000,-0.1038,-0.4374,0.0284,-0.8928,131.7900,-23.8700,-56.2000,-13.6500,0.3700,-11.1400,0.0000,0.0000,-0.0000,1937.0000,1047.0000,1500.0000,2000.0000
236427.6360,2.0000,2000.0000,1000.0000,1517.0000,91.0000,-78.0000,-37.0000,1107.0000,-706.0000,9761.0000,-0.1020,-0.4506,0.0157,-0.8867,131.5100,-23.8600,-56.3700,-13.0600,0.4300,-11.6100,0.0000,0.0000,-0.0000,1937.0000,1047.0000,1500.0000,2000.0000
236444.7390,2.0000,2000.0000,1000.0000,1517.0000,104.0000,-60.0000,-41.0000,1162.0000,-924.0000,9350.0000,-0.1004,-0.4611,0.0014,-0.8817,131.2300,-23.8600,-56.5600,-12.5100,0.4400,-12.0200,0.0000,0.0000,-0.0000,1937.0000,1047.0000,1500.0000,2000.0000
236461.4680,2.0000,2000.0000,1000.0000,1517.0000,120.0000,-56.0000,-48.0000,1134.0000,-957.0000,8562.0000,-0.0984,-0.4701,-0.0154,-0.8770,130.9700,-23.8500,-56.7500,-12.0200,0.3900,-12.3700,0.0000,0.0000,-0.0000,1937.0000,1047.0000,1500.0000,2000.0000
236478.1280,2.0000,2000.0000,1000.0000,1517.0000,124.0000,-52.0000,-53.0000,1019.0000,-704.0000,7603.0000,-0.0964,-0.4784,-0.0339,-0.8721,130.9700,-23.8500,-56.7500,-12.0200,0.3900,-12.3700,0.0000,0.0000,-0.0000,1937.0000,1047.0000,1500.0000,2000.0000
236494.9390,2.0000,1995.0000,1531.0000,2000.0000,132.0000,-53.0000,-51.0000,1019.0000,-759.0000,6870.0000,-0.0938,-0.4865,-0.0536,-0.8670,130.7200,-23.8400,-56.9400,-11.6000,0.3200,-12.6500,0.0000,0.0000,-0.0000,1021.0000,1052.0000,1500.0000,1996.0000
236511.6890,2.0000,1995.0000,1531.0000,2000.0000,118.0000,-63.0000,-47.0000,1063.0000,-920.0000,6159.0000,-0.0908,-0.4949,-0.0729,-0.8611,130.4900,-23.8400,-57.1400,-11.2700,0.2200,-12.8500,0.0000,0.0000,-0.0000,1021.0000,1052.0000,1500.0000,1996.0000
236528.4660,2.0000,1995.0000,1531.0000,2000.0000,74.0000,-78.0000,-34.0000,1116.0000,-884.0000,5917.0000,-0.0889,-0.5045,-0.0877,-0.8543,130.2400,-23.8400,-57.3500,-10.9600,0.0800,-12.9800,0.0000,0.0000,-0.0000,1021.0000,1052.0000,1500.0000,1996.0000
236545.2990,2.0000,1995.0000,1531.0000,2000.0000,7.0000,-93.0000,-16.0000,1184.0000,-997.0000,6123.0000,-0.0893,-0.5154,-0.0942,-0.8470,130.0000,-23.8400,-57.5600,-10.6600,-0.0600,-13.0900,0.0000,0.0000,-0.0000,1021.0000,1052.0000,1500.0000,1996.0000
236562.2990,2.0000,1995.0000,1531.0000,2000.0000,-62.0000,-102.0000,2.0000,1087.0000,-816.0000,6516.0000,-0.0934,-0.5271,-0.0899,-0.8399,129.7700,-23.8500,-57.7700,-10.3500,-0.2100,-13.1900,0.0000,0.0000,-0.0000,1021.0000,1052.0000,1500.0000,1996.0000
236579.2190,2.0000,1995.0000,1531.0000,2000.0000,-112.0000,-102.0000,17.0000,1097.0000,-898.0000,7445.0000,-0.1000,-0.5386,-0.0769,-0.8331,129.7700,-23.8500,-57.7700,-10.3500,-0.2100,-13.1900,0.0000,0.0000,-0.0000,1021.0000,1052.0000,1500.0000,1996.0000
236596.2070,2.0000,1000.0000,1000.0000,1467.0000,-154.0000,-92.0000,28.0000,1183.0000,-867.0000,8160.0000,-0.1087,-0.5487,-0.0572,-0.8270,129.5500,-23.8600,-57.9700,-9.9600,-0.3300,-13.3000,0.0000,0.0000,-0.0000,1926.0000,1108.0000,1500.0000,1048.0000
236613.0290,2.0000,1000.0000,1000.0000,1467.0000,-156.0000,-92.0000,35.0000,997.0000,-844.0000,7522.0000,-0.1182,-0.5574,-0.0340,-0.8211,129.3500,-23.8700,-58.1800,-9.4900,-0.4100,-13.4400,0.0000,0.0000,-0.0000,1926.0000,1108.0000,1500.0000,1048.0000
236629.8290,2.0000,1000.0000,1000.0000,1467.0000,-112.0000,-101.0000,33.0000,623.0000,-879.0000,6629.0000,-0.1255,-0.5664,-0.0129,-0.8144,129.1300,-23.8800,-58.4000,-8.9700,-0.4700,-13.5600,0.0000,0.0000,-0.0000,1926.0000,1108.0000,1500.0000,1048.0000
236646.9210,2.0000,1000.0000,1000.0000,1467.0000,-45.0000,-113.0000,22.0000,88.0000,-556.0000,6058.0000,-0.1289,-0.5780,0.0012,-0.8058,128.9300,-23.9000,-58.6200,-8.5300,-0.4900,-13.6000,0.0000,0.0000,-0.0000,1926.0000,1108.0000,1500.0000,1048.0000
236663.6920,2.0000,1000.0000,1000.0000,1467.0000,15.0000,-120.0000,5.0000,-131.0000,-274.0000,6414.0000,-0.1279,-0.5914,0.0057,-0.7961,128.7400,-23.9100,-58.8400,-8.1100,-0.4500,-13.5800,0.0000,0.0000,-0.0000,1926.0000,1108.0000,1500.0000,1048.0000
236680.4380,2.0000,1999.0000,1000.0000,1469.0000,63.0000,-117.0000,-8.0000,-217.0000,-231.0000,6773.0000,-0.1240,-0.6060,0.0025,-0.7857,128.7400,-23.9100,-58.8400,-8.1100,-0.4500,-13.5800,0.0000,0.0000,-0.0000,1957.0000,1075.0000,1500.0000,2000.0000
236697.4050,2.0000,2000.0000,1000.0000,1469.0000,92.0000,-114.0000,-19.0000,-208.0000,-268.0000,6939.0000,-0.1182,-0.6206,-0.0059,-0.7751,128.5600,-23.9300,-59.0600,-7.6600,-0.3800,-13.5400,0.0000,0.0000,-0.0000,1957.0000,1075.0000,1500.0000,2000.0000
236714.1820,2.0000,2000.0000,1000.0000,1469.0000,98.0000,-106.0000,-28.0000,-76.0000,-399.0000,6950.0000,-0.1118,-0.6347,-0.0173,-0.7645,128.4000,-23.9400,-59.2900,-7.1800,-0.3200,-13.4800,0.0000,0.0000,-0.0000,1957.0000,1075.0000,1500.0000,2000.0000
236731.3340,2.0000,2000.0000,1000.0000,1469.0000,104.0000,-99.0000,-34.0000,501.0000,-421.0000,7069.0000,-0.1060,-0.6478,-0.0301,-0.7538,128.2300,-23.9500,-59.5200,-6.6200,-0.3400,-13.4100,0.0000,0.0000,-0.0000,1957.0000,1075.0000,1500.0000,2000.0000
236748.0500,2.0000,2000.0000,1000.0000,1469.0000,107.0000,-92.0000,-38.0000,1085.0000,-639.0000,7008.0000,-0.1000,-0.6596,-0.0440,-0.7436,128.0800,-23.9700,-59.7500,-6.0800,-0.4100,-13.3700,0.0000,0.0000,-0.0000,1957.0000,1075.0000,1500.0000,2000.0000
236765.0760,2.0000,2000.0000,1000.0000,1469.0000,112.0000,-83.0000,-42.0000,1480.0000,-777.0000,7210.0000,-0.0938,-0.6704,-0.0590,-0.7337,127.9400,-23.9800,-59.9800,-5.5600,-0.5400,-13.3400,0.0000,0.0000,-0.0000,1957.0000,1075.0000,1500.0000,2000.0000
236782.0250,2.0000,1832.0000,1376.0000,2000.0000,119.0000,-78.0000,-45.0000,1602.0000,-858.0000,6999.0000,-0.0869,-0.6802,-0.0754,-0.7239,127.9400,-23.9800,-59.9800,-5.5600,-0.5400,-13.3400,0.0000,0.0000,-0.0000,1135.0000,1028.0000,1500.0000,1839.0000
236798.8710,2.0000,1829.0000,1393.0000,2000.0000,120.0000,-72.0000,-47.0000,1537.0000,-779.0000,6674.0000,-0.0799,-0.6890,-0.0926,-0.7144,127.8100,-24.0100,-60.2000,-5.0800,-0.7100,-13.3100,0.0000,0.0000,-0.0000,1135.0000,1028.0000,1500.0000,1839.0000
236815.7390,2.0000,1829.0000,1393.0000,2000.0000,107.0000,-70.0000,-46.0000,1406.0000,-711.0000,6302.0000,-0.0734,-0.6969,-0.1094,-0.7050,127.6900,-24.0300,-60.4300,-4.6500,-0.9000,-13.2400,0.0000,0.0000,-0.0000,1135.0000,1028.0000,1500.0000,1839.0000
236832.7970,2.0000,1829.0000,1393.0000,2000.0000,55.0000,-74.0000,-41.0000,1193.0000,-507.0000,5516.0000,-0.0701,-0.7044,-0.1224,-0.6956,127.5700,-24.0700,-60.6500,-4.1800,-1.1400,-13.1500,0.0000,0.0000,-0.0000,1135.0000,1028.0000,1500.0000,1839.0000
236849.8230,2.0000,1829.0000,1393.0000,2000.0000,0.0000,-84.0000,-31.0000,1176.0000,-642.0000,5468.0000,-0.0719,-0.7120,-0.1286,-0.6865,127.4500,-24.1100,-60.8800,-3.8000,-1.3600,-13.0300,0.0000,0.0000,-0.0000,1135.0000,1028.0000,1500.0000,1839.0000
236866.9530,2.0000,1829.0000,1393.0000,2000.0000,-33.0000,-99.0000,-22.0000,1036.0000,-612.0000,5256.0000,-0.0778,-0.7205,-0.1290,-0.6769,127.3500,-24.1500,-61.1000,-3.4500,-1.5700,-12.8800,0.0000,0.0000,-0.0000,1135.0000,1028.0000,1500.0000,1839.0000
236883.3620,2.0000,1829.0000,1393.0000,2000.0000,-57.0000,-111.0000,-15.0000,940.0000,-511.0000,4962.0000,-0.0858,-0.7297,-0.1257,-0.6666,127.3500,-24.1500,-61.1000,-3.4500,-1.5700,-12.8800,0.0000,0.0000,-0.0000,1135.0000,1028.0000,1500.0000,1839.0000
236899.9990,2.0000,1991.0000,1287.0000,1987.0000,-65.0000,-122.0000,-9.0000,1051.0000,-561.0000,5267.0000,-0.0953,-0.7400,-0.1199,-0.6550,127.2600,-24.2000,-61.3100,-3.1600,-1.7500,-12.7100,0.0000,0.0000,-0.0000,1362.0000,1150.0000,1500.0000,1992.0000
236916.5080,2.0000,1991.0000,1287.0000,1987.0000,-78.0000,-124.0000,-5.0000,1239.0000,-666.0000,5815.0000,-0.1055,-0.7502,-0.1124,-0.6430,127.1600,-24.2600,-61.5300,-2.7200,-1.9500,-12.5400,0.0000,0.0000,-0.0000,1362.0000,1150.0000,1500.0000,1992.0000
236933.6050,2.0000,1991.0000,1287.0000,1987.0000,-80.0000,-131.0000,1.0000,1510.0000,-821.0000,6058.0000,-0.1163,-0.7611,-0.1034,-0.6297,127.0800,-24.3200,-61.7400,-2.2400,-2.1400,-12.3500,0.0000,0.0000,-0.0000,1362.0000,1150.0000,1500.0000,1992.0000
236950.1070,2.0000,1991.0000,1287.0000,1987.0000,-72.0000,-138.0000,2.0000,1654.0000,-847.0000,6387.0000,-0.1260,-0.7718,-0.0946,-0.6161,127.0100,-24.3900,-61.9600,-1.7300,-2.3100,-12.1600,0.0000,0.0000,-0.0000,1362.0000,1150.0000,1500.0000,1992.0000
236966.9620,2.0000,1991.0000,1287.0000,1987.0000,-65.0000,-140.0000,5.0000,1760.0000,-830.0000,6732.0000,-0.1352,-0.7830,-0.0857,-0.6011,126.9500,-24.4500,-62.1700,-1.2100,-2.4500,-11.9400,0.0000,0.0000,-0.0000,1362.0000,1150.0000,1500.0000,1992.0000
236983.9900,2.0000,1878.0000,1470.0000,2000.0000,-58.0000,-142.0000,8.0000,1770.0000,-705.0000,6670.0000,-0.1433,-0.7942,-0.0769,-0.5855,126.9500,-24.4500,-62.1700,-1.2100,-2.4500,-11.9400,0.0000,0.0000,-0.0000,1072.0000,1042.0000,1500.0000,1885.0000
237000.8120,2.0000,1878.0000,1470.0000,2000.0000,-52.0000,-140.0000,11.0000,1755.0000,-549.0000,6606.0000,-0.1502,-0.8051,-0.0684,-0.5697,126.9100,-24.5200,-62.3700,-0.7000,-2.5500,-11.7000,0.0000,0.0000,-0.0000,1072.0000,1042.0000,1500.0000,1885.0000
237017.7080,2.0000,1878.0000,1470.0000,2000.0000,-61.0000,-133.0000,15.0000,1789.0000,-408.0000,6910.0000,-0.1568,-0.8153,-0.0595,-0.5542,126.8700,-24.6000,-62.5800,-0.1000,-2.7100,-11.4400,0.0000,0.0000,-0.0000,1072.0000,1042.0000,1500.0000,1885.0000
237034.3680,2.0000,1878.0000,1470.0000,2000.0000,-74.0000,-119.0000,19.0000,1747.0000,-488.0000,7089.0000,-0.1640,-0.8239,-0.0497,-0.5402,126.8500,-24.6800,-62.7800,0.4800,-2.8100,-11.1500,0.0000,0.0000,-0.0000,1072.0000,1042.0000,1500.0000,1885.0000
237051.0570,2.0000,1878.0000,1470.0000,2000.0000,-93.0000,-107.0000,25.0000,1656.0000,-511.0000,6888.0000,-0.1727,-0.8308,-0.0384,-0.5277,126.8400,-24.7600,-62.9800,1.0400,-2.8800,-10.8400,0.0000,0.0000,-0.0000,1072.0000,1042.0000,1500.0000,1885.0000
237068.1150,2.0000,1878.0000,1470.0000,2000.0000,-117.0000,-96.0000,30.0000,1658.0000,-464.0000,6959.0000,-0.1841,-0.8359,-0.0243,-0.5165,126.8400,-24.8400,-63.1600,1.5400,-2.9100,-10.5200,0.0000,0.0000,-0.0000,1072.0000,1042.0000,1500.0000,1885.0000
237084.9190,2.0000,1000.0000,1000.0000,1476.0000,-122.0000,-88.0000,32.0000,1564.0000,-401.0000,6954.0000,-0.1966,-0.8396,-0.0091,-0.5062,126.8400,-24.8400,-63.1600,1.5400,-2.9100,-10.5200,0.0000,0.0000,-0.0000,1929.0000,1097.0000,1500.0000,1087.0000
237101.5910,2.0000,1000.0000,1000.0000,1475.0000,-117.0000,-77.0000,34.0000,1311.0000,-323.0000,6310.0000,-0.2087,-0.8420,0.0057,-0.4974,126.8500,-24.9100,-63.3500,2.0300,-2.9000,-10.1800,0.0000,0.0000,-0.0000,1929.0000,1097.0000,1500.0000,1087.0000
237118.3210,2.0000,1000.0000,1000.0000,1475.0000,-92.0000,-72.0000,33.0000,919.0000,-145.0000,5446.0000,-0.2190,-0.8439,0.0194,-0.4894,126.8700,-25.0000,-63.5300,2.5700,-2.9100,-9.8500,0.0000,0.0000,-0.0000,1929.0000,1097.0000,1500.0000,1087.0000
237135.2050,2.0000,1000.0000,1000.0000,1475.0000,-51.0000,-71.0000,27.0000,509.0000,-48.0000,4622.0000,-0.2254,-0.8467,0.0304,-0.4811,126.9100,-25.0900,-63.7100,2.9800,-2.9000,-9.5300,0.0000,0.0000,-0.0000,1929.0000,1097.0000,1500.0000,1087.0000
237152.3690,2.0000,1000.0000,1000.0000,1475.0000,-4.0000,-71.0000,15.0000,182.0000,57.0000,3844.0000,-0.2263,-0.8508,0.0367,-0.4728,126.9500,-25.1700,-63.8800,3.2500,-2.8800,-9.2200,0.0000,0.0000,-0.0000,1929.0000,1097.0000,1500.0000,1087.0000
237169.1170,2.0000,1000.0000,1000.0000,1475.0000,24.0000,-71.0000,-1.0000,7.0000,205.0000,3277.0000,-0.2241,-0.8560,0.0390,-0.4643,127.0000,-25.2400,-64.0500,3.4300,-2.8700,-8.9400,0.0000,0.0000,-0.0000,1929.0000,1097.0000,1500.0000,1087.0000
237185.9800,2.0000,1000.0000,1000.0000,1418.0000,47.0000,-75.0000,-17.0000,-110.0000,298.0000,2625.0000,-0.2194,-0.8622,0.0375,-0.4551,127.0000,-25.2400,-64.0500,3.4300,-2.8700,-8.9400,0.0000,0.0000,-0.0000,1961.0000,1125.0000,1500.0000,1000.0000
237202.7220,2.0000,1000.0000,1000.0000,1415.0000,54.0000,-77.0000,-33.0000,-172.0000,300.0000,2412.0000,-0.2137,-0.8690,0.0330,-0.4450,127.0500,-25.3200,-64.2200,3.5500,-2.8600,-8.6600,0.0000,0.0000,-0.0000,1961.0000,1125.0000,1500.0000,1000.0000
237219.6080,2.0000,1000.0000,1000.0000,1415.0000,60.0000,-81.0000,-49.0000,-185.0000,376.0000,2523.0000,-0.2087,-0.8761,0.0263,-0.4339,127.1100,-25.4000,-64.3900,3.7700,-2.8500,-8.4000,0.0000,0.0000,-0.0000,1961.0000,1125.0000,1500.0000,1000.0000
237236.5620,2.0000,1000.0000,1000.0000,1415.0000,75.0000,-81.0000,-65.0000,-206.0000,343.0000,2635.0000,-0.2031,-0.8835,0.0170,-0.4217,127.1800,-25.4800,-64.5600,3.9800,-2.8300,-8.1400,0.0000,0.0000,-0.0000,1961.0000,1125.0000,1500.0000,1000.0000
237253.9340,2.0000,1000.0000,1000.0000,1415.0000,87.0000,-81.0000,-78.0000,-203.0000,384.0000,2536.0000,-0.1967,-0.8912,0.0046,-0.4088,127.2400,-25.5600,-64.7300,4.1900,-2.8100,-7.8500,0.0000,0.0000,-0.0000,1961.0000,1125.0000,1500.0000,1000.0000
237270.5650,2.0000,1000.0000,1000.0000,1415.0000,109.0000,-87.0000,-88.0000,-132.0000,291.0000,2406.0000,-0.1885,-0.8988,-0.0101,-0.3956,127.3100,-25.6400,-64.8900,4.3700,-2.8100,-7.5700,0.0000,0.0000,-0.0000,1961.0000,1125.0000,1500.0000,1000.0000
237287.6510,2.0000,1000.0000,1085.0000,1991.0000,113.0000,-84.0000,-98.0000,-199.0000,120.0000,2784.0000,-0.1790,-0.9066,-0.0271,-0.3812,127.3100,-25.6400,-64.8900,4.3700,-2.8100,-7.5700,0.0000,0.0000,-0.0000,1460.0000,1046.0000,1500.0000,1000.0000
237304.4260,2.0000,1000.0000,1085.0000,1993.0000,119.0000,-83.0000,-105.0000,-318.0000,19.0000,2834.0000,-0.1695,-0.9135,-0.0453,-0.3671,127.3900,-25.7100,-65.0500,4.5600,-2.8300,-7.2700,0.0000,0.0000,-0.0000,1460.0000,1046.0000,1500.0000,1000.0000
237321.5110,2.0000,1000.0000,1085.0000,1993.0000,108.0000,-91.0000,-109.0000,-331.0000,29.0000,2328.0000,-0.1601,-0.9201,-0.0642,-0.3516,127.4800,-25.8000,-65.2100,4.8200,-2.8600,-6.9300,0.0000,0.0000,-0.0000,1460.0000,1046.0000,1500.0000,1000.0000
237338.2650,2.0000,1000.0000,1085.0000,1993.0000,85.0000,-106.0000,-109.0000,-386.0000,-46.0000,1997.0000,-0.1537,-0.9261,-0.0816,-0.3349,127.5700,-25.8800,-65.3600,5.0300,-2.9100,-6.6100,0.0000,0.0000,-0.0000,1460.0000,1046.0000,1500.0000,1000.0000
237355.2450,2.0000,1000.0000,1085.0000,1993.0000,60.0000,-119.0000,-105.0000,-446.0000,-174.0000,1931.0000,-0.1503,-0.9317,-0.0975,-0.3161,127.6700,-25.9700,-65.5100,5.2000,-2.9700,-6.2900,0.0000,0.0000,-0.0000,1460.0000,1046.0000,1500.0000,1000.0000
237372.1350,2.0000,1000.0000,1085.0000,1993.0000,42.0000,-133.0000,-98.0000,-414.0000,-270.0000,2039.0000,-0.1496,-0.9369,-0.1115,-0.2958,127.7600,-26.0500,-65.6500,5.3400,-3.0400,-5.9700,0.0000,0.0000,-0.0000,1460.0000,1046.0000,1500.0000,1000.0000
237389.0300,2.0000,1000.0000,1001.0000,1831.0000,32.0000,-142.0000,-90.0000,-373.0000,-351.0000,2077.0000,-0.1508,-0.9418,-0.1234,-0.2740,127.7600,-26.0500,-65.6500,5.3400,-3.0400,-5.9700,0.0000,0.0000,-0.0000,1587.0000,1085.0000,1500.0000,1000.0000
237406.1110,2.0000,1000.0000,1000.0000,1830.0000,30.0000,-150.0000,-84.0000,-328.0000,-361.0000,2134.0000,-0.1527,-0.9465,-0.1340,-0.2509,127.8600,-26.1300,-65.7900,5.4800,-3.1000,-5.6400,0.0000,0.0000,-0.0000,1587.0000,1085.0000,1500.0000,1000.0000
237422.7770,2.0000,1000.0000,1000.0000,1830.0000,29.0000,-153.0000,-80.0000,-271.0000,-313.0000,2630.0000,-0.1545,-0.9507,-0.1435,-0.2276,127.9800,-26.2200,-65.9300,5.6800,-3.1500,-5.2800,0.0000,0.0000,-0.0000,1587.0000,1085.0000,1500.0000,1000.0000
237439.4990,2.0000,1000.0000,1000.0000,1830.0000,31.0000,-153.0000,-77.0000,-180.0000,-262.0000,3170.0000,-0.1560,-0.9543,-0.1525,-0.2040,128.0900,-26.3100,-66.0500,5.8800,-3.1700,-4.8900,0.0000,0.0000,-0.0000,1587.0000,1085.0000,1500.0000,1000.0000
237456.4140,2.0000,1000.0000,1000.0000,1830.0000,31.0000,-149.0000,-74.0000,-106.0000,-297.0000,3466.0000,-0.1571,-0.9575,-0.1612,-0.1803,128.2100,-26.3900,-66.1700,6.0900,-3.1700,-4.4400,0.0000,0.0000,-0.0000,1587.0000,1085.0000,1500.0000,1000.0000
237473.0540,2.0000,1000.0000,1061.0000,1965.0000,29.0000,-144.0000,-70.0000,-94.0000,-337.0000,3577.0000,-0.1581,-0.9600,-0.1689,-0.1576,128.3300,-26.4700,-66.2800,6.2800,-3.1700,-3.9700,0.0000,0.0000,-0.0000,1476.0000,1044.0000,1500.0000,1000.0000
237489.9670,2.0000,1000.0000,1067.0000,1979.0000,28.0000,-137.0000,-67.0000,-140.0000,-337.0000,3619.0000,-0.1591,-0.9619,-0.1763,-0.1355,128.3300,-26.4700,-66.2800,6.2800,-3.1700,-3.9700,0.0000,0.0000,-0.0000,1476.0000,1044.0000,1500.0000,1000.0000
237506.8790,2.0000,1000.0000,1067.0000,1979.0000,23.0000,-126.0000,-64.0000,-202.0000,-385.0000,3651.0000,-0.1600,-0.9631,-0.1833,-0.1146,128.4600,-26.5500,-66.3700,6.4500,-3.1500,-3.4800,0.0000,0.0000,-0.0000,1476.0000,1044.0000,1500.0000,1000.0000
237523.9400,2.0000,1000.0000,1067.0000,1979.0000,15.0000,-115.0000,-60.0000,-239.0000,-480.0000,3500.0000,-0.1616,-0.9637,-0.1901,-0.0955,128.5900,-26.6400,-66.4600,6.6000,-3.1100,-2.9900,0.0000,0.0000,-0.0000,1476.0000,1044.0000,1500.0000,1000.0000
237540.7570,2.0000,1000.0000,1067.0000,1979.0000,14.0000,-103.0000,-56.0000,-255.0000,-461.0000,3177.0000,-0.1635,-0.9636,-0.1964,-0.0784,128.7300,-26.7200,-66.5500,6.7300,-3.0700,-2.5000,0.0000,0.0000,-0.0000,1476.0000,1044.0000,1500.0000,1000.0000
237557.6190,2.0000,1000.0000,1067.0000,1979.0000,14.0000,-90.0000,-50.0000,-254.0000,-457.0000,2960.0000,-0.1649,-0.9633,-0.2022,-0.0633,128.8700,-26.8000,-66.6200,6.8200,-3.0400,-2.0500,0.0000,0.0000,-0.0000,1476.0000,1044.0000,1500.0000,1000.0000
237574.6200,2.0000,1000.0000,1211.0000,2000.0000,19.0000,-80.0000,-47.0000,-264.0000,-407.0000,2887.0000,-0.1655,-0.9629,-0.2074,-0.0496,129.0100,-26.8700,-66.6800,6.9000,-3.0100,-1.6200,0.0000,0.0000,-0.0000,1355.0000,1068.0000,1500.0000,1000.0000
237591.4090,2.0000,1000.0000,1212.0000,2000.0000,21.0000,-69.0000,-43.0000,-279.0000,-375.0000,2871.0000,-0.1653,-0.9624,-0.2123,-0.0375,129.0100,-26.8700,-66.6800,6.9000,-3.0100,-1.6200,0.0000,0.0000,-0.0000,1355.0000,1068.0000,1500.0000,1000.0000
237608.1810,2.0000,1000.0000,1212.0000,2000.0000,21.0000,-57.0000,-37.0000,-293.0000,-374.0000,2704.0000,-0.1644,-0.9619,-0.2167,-0.0272,129.1500,-26.9500,-66.7400,6.9700,-2.9700,-1.2000,0.0000,0.0000,-0.0000,1355.0000,1068.0000,1500.0000,1000.0000
237625.1540,2.0000,1000.0000,1212.0000,2000.0000,13.0000,-45.0000,-30.0000,-323.0000,-345.0000,2294.0000,-0.1638,-0.9614,-0.2204,-0.0185,129.3000,-27.0200,-66.7900,7.0700,-2.9400,-0.7800,0.0000,0.0000,-0.0000,1355.0000,1068.0000,1500.0000,1000.0000
237641.9860,2.0000,1000.0000,1212.0000,2000.0000,7.0000,-39.0000,-24.0000,-370.0000,-347.0000,1810.0000,-0.1639,-0.9608,-0.2233,-0.0117,129.4600,-27.1000,-66.8400,7.1400,-2.9200,-0.4100,0.0000,0.0000,-0.0000,1355.0000,1068.0000,1500.0000,1000.0000
237659.1870,2.0000,1000.0000,1212.0000,2000.0000,5.0000,-36.0000,-17.0000,-383.0000,-351.0000,1459.0000,-0.1643,-0.9603,-0.2254,-0.0056,129.6100,-27.1700,-66.8800,7.2000,-2.9100,-0.1000,0.0000,0.0000,-0.0000,1355.0000,1068.0000,1500.0000,1000.0000
237676.2800,2.0000,1000.0000,1212.0000,2000.0000,0.0000,-36.0000,-9.0000,-366.0000,-338.0000,1276.0000,-0.1655,-0.9599,-0.2264,-0.0004,129.7500,-27.2500,-66.9100,7.2500,-2.9100,0.1700,0.0000,0.0000,-0.0000,1355.0000,1068.0000,1500.0000,1000.0000
237693.3100,2.0000,1997.0000,1298.0000,2000.0000,-5.0000,-36.0000,-4.0000,-345.0000,-264.0000,982.0000,-0.1673,-0.9595,-0.2265,0.0047,129.7500,-27.2500,-66.9100,7.2500,-2.9100,0.1700,0.0000,0.0000,-0.0000,1216.0000,1014.0000,1500.0000,1999.0000
237709.9790,2.0000,1998.0000,1298.0000,2000.0000,-9.0000,-40.0000,2.0000,-362.0000,-222.0000,711.0000,-0.1697,-0.9592,-0.2258,0.0101,129.9000,-27.3200,-66.9400,7.2900,-2.9100,0.4300,0.0000,0.0000,-0.0000,1216.0000,1014.0000,1500.0000,1999.0000
237726.6850,2.0000,1998.0000,1298.0000,2000.0000,-16.0000,-46.0000,7.0000,-325.0000,-171.0000,447.0000,-0.1731,-0.9589,-0.2242,0.0157,130.0600,-27.3900,-66.9600,7.3300,-2.9100,0.6500,0.0000,0.0000,-0.0000,1216.0000,1014.0000,1500.0000,1999.0000
237743.1950,2.0000,1998.0000,1298.0000,2000.0000,-35.0000,-59.0000,15.0000,-71.0000,-184.0000,272.0000,-0.1783,-0.9585,-0.2215,0.0219,130.2200,-27.4700,-66.9800,7.3600,-2.9100,0.8400,0.0000,0.0000,-0.0000,1216.0000,1014.0000,1500.0000,1999.0000
237760.1430,2.0000,1998.0000,1298.0000,2000.0000,-52.0000,-70.0000,18.0000,647.0000,-286.0000,260.0000,-0.1867,-0.9575,-0.2180,0.0289,130.3700,-27.5400,-67.0000,7.4200,-2.9300,1.0300,0.0000,0.0000,-0.0000,1216.0000,1014.0000,1500.0000,1999.0000
237776.7470,2.0000,1998.0000,1142.0000,2000.0000,-61.0000,-81.0000,22.0000,1243.0000,-360.0000,234.0000,-0.1972,-0.9562,-0.2133,0.0369,130.3700,-27.5400,-67.0000,7.4200,-2.9300,1.0300,0.0000,0.0000,-0.0000,1950.0000,1049.0000,1500.0000,2000.0000
237793.6470,2.0000,2000.0000,1000.0000,1502.0000,-68.0000,-98.0000,25.0000,1481.0000,-400.0000,358.0000,-0.2095,-0.9543,-0.2080,0.0467,130.5200,-27.6100,-67.0200,7.5500,-3.0000,1.2300,0.0000,0.0000,-0.0000,1950.0000,1049.0000,1500.0000,2000.0000
237810.6530,2.0000,2000.0000,1000.0000,1502.0000,-66.0000,-119.0000,27.0000,1751.0000,-580.0000,409.0000,-0.2228,-0.9519,-0.2016,0.0592,130.6800,-27.6800,-67.0300,7.7000,-3.0700,1.4700,0.0000,0.0000,-0.0000,1950.0000,1049.0000,1500.0000,2000.0000
237827.4660,2.0000,2000.0000,1000.0000,1502.0000,-50.0000,-136.0000,25.0000,1837.0000,-718.0000,390.0000,-0.2351,-0.9493,-0.1945,0.0748,130.8500,-27.7600,-67.0400,7.8600,-3.1500,1.7400,0.0000,0.0000,-0.0000,1950.0000,1049.0000,1500.0000,2000.0000
237844.3920,2.0000,2000.0000,1000.0000,1502.0000,-25.0000,-147.0000,22.0000,2004.0000,-785.0000,920.0000,-0.2447,-0.9469,-0.1872,0.0923,131.0100,-27.8400,-67.0400,8.0100,-3.2400,2.0300,0.0000,0.0000,-0.0000,1950.0000,1049.0000,1500.0000,2000.0000
237861.2140,2.0000,2000.0000,1000.0000,1502.0000,2.0000,-159.0000,16.0000,1888.0000,-525.0000,1192.0000,-0.2507,-0.9446,-0.1795,0.1129,131.1800,-27.9300,-67.0400,8.1600,-3.2900,2.3800,0.0000,0.0000,-0.0000,1950.0000,1049.0000,1500.0000,2000.0000
237877.9250,2.0000,2000.0000,1119.0000,2000.0000,23.0000,-165.0000,9.0000,1927.0000,-454.0000,1695.0000,-0.2534,-0.9423,-0.1718,0.1352,131.1800,-27.9300,-67.0400,8.1600,-3.2900,2.3800,0.0000,0.0000,-0.0000,1347.0000,1019.0000,1500.0000,2000.0000
237894.8960,2.0000,2000.0000,1171.0000,2000.0000,38.0000,-174.0000,4.0000,1914.0000,-500.0000,1950.0000,-0.2536,-0.9399,-0.1642,0.1595,131.3500,-28.0100,-67.0300,8.2900,-3.2800,2.7500,0.0000,0.0000,-0.0000,1347.0000,1019.0000,1500.0000,2000.0000
237911.8170,2.0000,2000.0000,1171.0000,2000.0000,45.0000,-173.0000,1.0000,2050.0000,-559.0000,2558.0000,-0.2517,-0.9371,-0.1568,0.1843,131.5200,-28.0900,-67.0100,8.3800,-3.2400,3.1700,0.0000,0.0000,-0.0000,1347.0000,1019.0000,1500.0000,2000.0000
237928.5690,2.0000,2000.0000,1171.0000,2000.0000,38.0000,-186.0000,-1.0000,1984.0000,-329.0000,2515.0000,-0.2498,-0.9334,-0.1497,0.2095,131.6900,-28.1700,-66.9800,8.4200,-3.1700,3.6500,0.0000,0.0000,-0.0000,1347.0000,1019.0000,1500.0000,2000.0000
237945.4590,2.0000,2000.0000,1171.0000,2000.0000,17.0000,-198.0000,0.0000,1975.0000,-340.0000,2921.0000,-0.2503,-0.9280,-0.1426,0.2361,131.8700,-28.2500,-66.9400,8.4400,-3.0800,4.1200,0.0000,0.0000,-0.0000,1347.0000,1019.0000,1500.0000,2000.0000
237962.6770,2.0000,2000.0000,1171.0000,2000.0000,-7.0000,-205.0000,5.0000,2084.0000,-595.0000,3878.0000,-0.2542,-0.9206,-0.1350,0.2641,132.0300,-28.3200,-66.9000,8.4100,-2.9500,4.6500,0.0000,0.0000,-0.0000,1347.0000,1019.0000,1500.0000,2000.0000
237979.4320,2.0000,2000.0000,1171.0000,2000.0000,-23.0000,-214.0000,7.0000,2094.0000,-525.0000,4346.0000,-0.2606,-0.9115,-0.1274,0.2915,132.0300,-28.3200,-66.9000,8.4100,-2.9500,4.6500,0.0000,0.0000,-0.0000,1347.0000,1019.0000,1500.0000,2000.0000
237996.4850,2.0000,2000.0000,1000.0000,1564.0000,-32.0000,-218.0000,10.0000,2121.0000,-448.0000,4832.0000,-0.2692,-0.9006,-0.1197,0.3196,132.1900,-28.3900,-66.8400,8.3100,-2.7800,5.2600,0.0000,0.0000,-0.0000,1888.0000,1049.0000,1500.0000,2000.0000
238013.3840,2.0000,2000.0000,1000.0000,1564.0000,-34.0000,-217.0000,9.0000,2219.0000,-622.0000,5856.0000,-0.2781,-0.8885,-0.1120,0.3473,132.3500,-28.4600,-66.7600,8.1500,-2.6000,5.8800,0.0000,0.0000,-0.0000,1888.0000,1049.0000,1500.0000,2000.0000
238030.1690,2.0000,2000.0000,1000.0000,1564.0000,-29.0000,-209.0000,6.0000,2201.0000,-558.0000,6225.0000,-0.2864,-0.8759,-0.1048,0.3738,132.5100,-28.5300,-66.6800,7.9100,-2.3900,6.5400,0.0000,0.0000,-0.0000,1888.0000,1049.0000,1500.0000,2000.0000
238046.9670,2.0000,2000.0000,1000.0000,1564.0000,-23.0000,-190.0000,-1.0000,2053.0000,-214.0000,6354.0000,-0.2933,-0.8634,-0.0986,0.3984,132.6700,-28.5900,-66.5700,7.6200,-2.1400,7.2200,0.0000,0.0000,-0.0000,1888.0000,1049.0000,1500.0000,2000.0000
238063.7600,2.0000,2000.0000,1000.0000,1564.0000,-3.0000,-165.0000,-7.0000,2120.0000,-332.0000,6668.0000,-0.2976,-0.8521,-0.0930,0.4204,132.8100,-28.6400,-66.4500,7.2900,-1.8600,7.8600,0.0000,0.0000,-0.0000,1888.0000,1049.0000,1500.0000,2000.0000
238080.3570,2.0000,2000.0000,1000.0000,1564.0000,13.0000,-137.0000,-14.0000,2091.0000,-220.0000,6759.0000,-0.2985,-0.8427,-0.0881,0.4393,132.8100,-28.6400,-66.4500,7.2900,-1.8600,7.8600,0.0000,0.0000,-0.0000,1888.0000,1049.0000,1500.0000,2000.0000
238097.4000,2.0000,2000.0000,1000.0000,1605.0000,31.0000,-114.0000,-19.0000,2037.0000,-323.0000,6645.0000,-0.2964,-0.8351,-0.0836,0.4557,132.9400,-28.6900,-66.3200,6.9400,-1.5800,8.4700,0.0000,0.0000,-0.0000,1862.0000,1034.0000,1500.0000,2000.0000
238114.2650,2.0000,2000.0000,1000.0000,1605.0000,34.0000,-90.0000,-23.0000,1960.0000,-341.0000,6385.0000,-0.2925,-0.8293,-0.0802,0.4693,133.0700,-28.7300,-66.1800,6.5900,-1.3200,9.0500,0.0000,0.0000,-0.0000,1862.0000,1034.0000,1500.0000,2000.0000
238131.2890,2.0000,2000.0000,1000.0000,1605.0000,33.0000,-67.0000,-25.0000,1755.0000,-130.0000,6157.0000,-0.2882,-0.8249,-0.0782,0.4800,133.1900,-28.7700,-66.0200,6.2300,-1.0900,9.6000,0.0000,0.0000,-0.0000,1862.0000,1034.0000,1500.0000,2000.0000
238148.2680,2.0000,2000.0000,1000.0000,1605.0000,32.0000,-52.0000,-29.0000,1571.0000,-54.0000,5004.0000,-0.2834,-0.8216,-0.0773,0.4886,133.3000,-28.8100,-65.8600,5.9100,-0.8900,10.1000,0.0000,0.0000,-0.0000,1862.0000,1034.0000,1500.0000,2000.0000
238165.0230,2.0000,2000.0000,1000.0000,1605.0000,37.0000,-38.0000,-31.0000,1513.0000,-169.0000,4408.0000,-0.2781,-0.8193,-0.0770,0.4954,133.4000,-28.8500,-65.7000,5.6700,-0.7900,10.5300,0.0000,0.0000,-0.0000,1862.0000,1034.0000,1500.0000,2000.0000
238181.7630,2.0000,2000.0000,1000.0000,1568.0000,43.0000,-24.0000,-34.0000,1448.0000,-146.0000,3962.0000,-0.2715,-0.8184,-0.0771,0.5006,133.4000,-28.8500,-65.7000,5.6700,-0.7900,10.5300,0.0000,0.0000,-0.0000,1929.0000,1044.0000,1500.0000,2000.0000
238198.6070,2.0000,2000.0000,1000.0000,1528.0000,37.0000,-12.0000,-38.0000,1404.0000,-5.0000,3653.0000,-0.2644,-0.8182,-0.0781,0.5046,133.4900,-28.8800,-65.5300,5.4900,-0.7600,10.9300,0.0000,0.0000,-0.0000,1929.0000,1044.0000,1500.0000,2000.0000
238215.4260,2.0000,2000.0000,1000.0000,1528.0000,30.0000,-9.0000,-43.0000,1563.0000,-237.0000,3722.0000,-0.2576,-0.8181,-0.0803,0.5078,133.5800,-28.9200,-65.3600,5.3100,-0.6600,11.2800,0.0000,0.0000,-0.0000,1929.0000,1044.0000,1500.0000,2000.0000
238232.0610,2.0000,2000.0000,1000.0000,1528.0000,29.0000,-12.0000,-49.0000,1561.0000,-553.0000,3095.0000,-0.2509,-0.8177,-0.0834,0.5114,133.6600,-28.9500,-65.1800,5.0900,-0.5100,11.6500,0.0000,0.0000,-0.0000,1929.0000,1044.0000,1500.0000,2000.0000
238248.7380,2.0000,2000.0000,1000.0000,1528.0000,40.0000,-22.0000,-55.0000,1480.0000,-322.0000,3109.0000,-0.2434,-0.8170,-0.0866,0.5155,133.7400,-28.9800,-64.9900,4.9100,-0.4100,12.0300,0.0000,0.0000,-0.0000,1929.0000,1044.0000,1500.0000,2000.0000
238265.8400,2.0000,2000.0000,1000.0000,1528.0000,58.0000,-38.0000,-63.0000,1391.0000,-385.0000,2813.0000,-0.2335,-0.8156,-0.0892,0.5218,133.8200,-29.0000,-64.7900,4.7500,-0.3300,12.3900,0.0000,0.0000,-0.0000,1929.0000,1044.0000,1500.0000,2000.0000
238282.5720,2.0000,2000.0000,1000.0000,1649.0000,76.0000,-56.0000,-70.0000,1318.0000,-519.0000,2510.0000,-0.2210,-0.8132,-0.0906,0.5307,133.8200,-29.0000,-64.7900,4.7500,-0.3300,12.3900,0.0000,0.0000,-0.0000,1821.0000,1031.0000,1500.0000,2000.0000
238299.5120,2.0000,2000.0000,1000.0000,1649.0000,92.0000,-72.0000,-75.0000,1355.0000,-623.0000,2888.0000,-0.2062,-0.8098,-0.0908,0.5417,133.8900,-29.0300,-64.5900,4.6100,-0.2700,12.7400,0.0000,0.0000,-0.0000,1821.0000,1031.0000,1500.0000,2000.0000
238316.1250,2.0000,2000.0000,1000.0000,1649.0000,100.0000,-95.0000,-78.0000,1205.0000,-506.0000,2975.0000,-0.1900,-0.8050,-0.0898,0.5549,133.9500,-29.0400,-64.3700,4.3700,-0.1700,13.1200,0.0000,0.0000,-0.0000,1821.0000,1031.0000,1500.0000,2000.0000
238332.9590,2.0000,2000.0000,1000.0000,1649.0000,106.0000,-116.0000,-78.0000,1069.0000,-721.0000,3036.0000,-0.1728,-0.7979,-0.0877,0.5707,134.0100,-29.0600,-64.1400,4.0400,0.0000,13.5000,0.0000,0.0000,-0.0000,1821.0000,1031.0000,1500.0000,2000.0000
238349.8140,2.0000,2000.0000,1000.0000,1649.0000,105.0000,-137.0000,-74.0000,1095.0000,-817.0000,3501.0000,-0.1556,-0.7887,-0.0845,0.5887,134.0600,-29.0600,-63.8900,3.7100,0.1100,13.8800,0.0000,0.0000,-0.0000,1821.0000,1031.0000,1500.0000,2000.0000
238366.9160,2.0000,2000.0000,1000.0000,1649.0000,110.0000,-156.0000,-68.0000,1136.0000,-770.0000,4227.0000,-0.1384,-0.7770,-0.0801,0.6088,134.1100,-29.0700,-63.6400,3.3400,0.2100,14.2600,0.0000,0.0000,-0.0000,1821.0000,1031.0000,1500.0000,2000.0000
238383.5960,2.0000,2000.0000,1000.0000,1649.0000,114.0000,-175.0000,-63.0000,1204.0000,-862.0000,5269.0000,-0.1218,-0.7634,-0.0742,0.6300,134.1100,-29.0700,-63.6400,3.3400,0.2100,14.2600,0.0000,0.0000,-0.0000,1821.0000,1031.0000,1500.0000,2000.0000
238400.4810,2.0000,2000.0000,1000.0000,1517.0000,118.0000,-188.0000,-54.0000,1366.0000,-1006.0000,6384.0000,-0.1054,-0.7475,-0.0669,0.6524,134.1400,-29.0700,-63.3700,2.8900,0.3300,14.6400,0.0000,0.0000,-0.0000,1938.0000,1046.0000,1500.0000,2000.0000
238417.4160,2.0000,2000.0000,1000.0000,1517.0000,117.0000,-189.0000,-44.0000,1611.0000,-1149.0000,7665.0000,-0.0898,-0.7301,-0.0582,0.6749,134.1700,-29.0700,-63.1000,2.2800,0.4500,15.0500,0.0000,0.0000,-0.0000,1938.0000,1046.0000,1500.0000,2000.0000
238434.4300,2.0000,2000.0000,1000.0000,1517.0000,125.0000,-191.0000,-36.0000,1701.0000,-1300.0000,9106.0000,-0.0746,-0.7119,-0.0481,0.6967,134.1800,-29.0600,-62.8100,1.5200,0.5600,15.4700,0.0000,0.0000,-0.0000,1938.0000,1046.0000,1500.0000,2000.0000
238451.3620,2.0000,2000.0000,1000.0000,1517.0000,137.0000,-177.0000,-33.0000,1521.0000,-1289.0000,9742.0000,-0.0590,-0.6937,-0.0366,0.7169,134.1700,-29.0500,-62.5200,0.6600,0.6500,15.8400,0.0000,0.0000,-0.0000,1938.0000,1046.0000,1500.0000,2000.0000
238468.6230,2.0000,2000.0000,1000.0000,1517.0000,149.0000,-154.0000,-28.0000,1457.0000,-1290.0000,10091.0000,-0.0418,-0.6765,-0.0229,0.7349,134.1400,-29.0400,-62.2100,-0.2400,0.7000,16.1400,0.0000,0.0000,-0.0000,1938.0000,1046.0000,1500.0000,2000.0000
238485.6740,2.0000,2000.0000,1000.0000,1527.0000,160.0000,-134.0000,-25.0000,1393.0000,-1139.0000,10093.0000,-0.0240,-0.6614,-0.0079,0.7496,134.1400,-29.0400,-62.2100,-0.2400,0.7000,16.1400,0.0000,0.0000,-0.0000,1927.0000,1047.0000,1500.0000,2000.0000
238502.7290,2.0000,2000.0000,1000.0000,1527.0000,156.0000,-113.0000,-21.0000,1241.0000,-1007.0000,9964.0000,-0.0063,-0.6480,0.0078,0.7616,134.1000,-29.0300,-61.9000,-1.1200,0.7000,16.3700,0.0000,0.0000,-0.0000,1927.0000,1047.0000,1500.0000,2000.0000
238519.7770,2.0000,2000.0000,1000.0000,1527.0000,150.0000,-94.0000,-17.0000,1167.0000,-958.0000,9318.0000,0.0102,-0.6361,0.0231,0.7712,134.0300,-29.0200,-61.5800,-2.0200,0.6900,16.5500,0.0000,0.0000,-0.0000,1927.0000,1047.0000,1500.0000,2000.0000
238536.5380,2.0000,2000.0000,1000.0000,1527.0000,139.0000,-73.0000,-14.0000,1029.0000,-924.0000,8359.0000,0.0254,-0.6265,0.0377,0.7781,133.9500,-29.0100,-61.2600,-2.8700,0.6400,16.6800,0.0000,0.0000,-0.0000,1927.0000,1047.0000,1500.0000,2000.0000
238553.7360,2.0000,2000.0000,1000.0000,1527.0000,131.0000,-61.0000,-14.0000,851.0000,-813.0000,7212.0000,0.0397,-0.6183,0.0514,0.7833,133.8500,-29.0000,-60.9300,-3.5400,0.5700,16.7800,0.0000,0.0000,-0.0000,1927.0000,1047.0000,1500.0000,2000.0000
238570.8450,2.0000,2000.0000,1000.0000,1527.0000,135.0000,-57.0000,-14.0000,730.0000,-689.0000,6128.0000,0.0540,-0.6108,0.0653,0.7873,133.7400,-28.9800,-60.6000,-4.0500,0.5000,16.8700,0.0000,0.0000,-0.0000,1927.0000,1047.0000,1500.0000,2000.0000
238587.7640,2.0000,2000.0000,1000.0000,1522.0000,136.0000,-62.0000,-13.0000,805.0000,-733.0000,5963.0000,0.0683,-0.6028,0.0793,0.7910,133.6300,-28.9800,-60.2800,-4.4200,0.4200,16.9700,0.0000,0.0000,-0.0000,1930.0000,1049.0000,1500.0000,2000.0000
238604.3490,2.0000,2000.0000,1000.0000,1522.0000,139.0000,-70.0000,-14.0000,822.0000,-795.0000,5963.0000,0.0823,-0.5937,0.0929,0.7950,133.6300,-28.9800,-60.2800,-4.4200,0.4200,16.9700,0.0000,0.0000,-0.0000,1930.0000,1049.0000,1500.0000,2000.0000
238621.3070,2.0000,2000.0000,1000.0000,1522.0000,153.0000,-81.0000,-14.0000,881.0000,-768.0000,6093.0000,0.0975,-0.5832,0.1077,0.7993,133.5000,-28.9700,-59.9400,-4.8400,0.3300,17.0600,0.0000,0.0000,-0.0000,1930.0000,1049.0000,1500.0000,2000.0000
238638.0240,2.0000,2000.0000,1000.0000,1522.0000,157.0000,-90.0000,-16.0000,869.0000,-643.0000,6010.0000,0.1136,-0.5710,0.1231,0.8037,133.3700,-28.9600,-59.6100,-5.2800,0.2200,17.1500,0.0000,0.0000,-0.0000,1930.0000,1049.0000,1500.0000,2000.0000
238655.0470,2.0000,2000.0000,1000.0000,1522.0000,150.0000,-100.0000,-15.0000,844.0000,-703.0000,6110.0000,0.1298,-0.5571,0.1382,0.8085,133.2400,-28.9500,-59.2800,-5.6700,0.0900,17.2300,0.0000,0.0000,-0.0000,1930.0000,1049.0000,1500.0000,2000.0000
238671.6680,2.0000,2000.0000,1000.0000,1522.0000,148.0000,-110.0000,-14.0000,835.0000,-638.0000,6556.0000,0.1455,-0.5422,0.1524,0.8134,133.1000,-28.9500,-58.9400,-6.0400,-0.0600,17.2900,0.0000,0.0000,-0.0000,1930.0000,1049.0000,1500.0000,2000.0000
238688.3620,2.0000,2000.0000,1000.0000,1565.0000,145.0000,-111.0000,-14.0000,869.0000,-736.0000,7308.0000,0.1609,-0.5261,0.1661,0.8184,132.9600,-28.9500,-58.6000,-6.4100,-0.2600,17.3000,0.0000,0.0000,-0.0000,1890.0000,1046.0000,1500.0000,2000.0000
238705.0800,2.0000,2000.0000,1000.0000,1565.0000,141.0000,-115.0000,-16.0000,961.0000,-843.0000,8059.0000,0.1760,-0.5095,0.1792,0.8230,132.9600,-28.9500,-58.6000,-6.4100,-0.2600,17.3000,0.0000,0.0000,-0.0000,1890.0000,1046.0000,1500.0000,2000.0000
238721.6030,2.0000,2000.0000,1000.0000,1565.0000,133.0000,-117.0000,-16.0000,910.0000,-749.0000,8108.0000,0.1904,-0.4926,0.1909,0.8274,132.8000,-28.9500,-58.2600,-6.8900,-0.5200,17.2700,0.0000,0.0000,-0.0000,1890.0000,1046.0000,1500.0000,2000.0000
238738.2760,2.0000,2000.0000,1000.0000,1565.0000,116.0000,-121.0000,-16.0000,887.0000,-738.0000,8223.0000,0.2040,-0.4752,0.2011,0.8320,132.6200,-28.9500,-57.9200,-7.3700,-0.8000,17.2000,0.0000,0.0000,-0.0000,1890.0000,1046.0000,1500.0000,2000.0000
238755.0080,2.0000,2000.0000,1000.0000,1565.0000,98.0000,-122.0000,-14.0000,971.0000,-996.0000,8981.0000,0.2162,-0.4576,0.2090,0.8368,132.4500,-28.9600,-57.5800,-7.8000,-1.0900,17.1000,0.0000,0.0000,-0.0000,1890.0000,1046.0000,1500.0000,2000.0000
238771.7270,2.0000,2000.0000,1000.0000,1565.0000,82.0000,-117.0000,-12.0000,1107.0000,-936.0000,9765.0000,0.2269,-0.4407,0.2151,0.8415,132.2700,-28.9700,-57.2500,-8.2100,-1.4400,16.9400,0.0000,0.0000,-0.0000,1890.0000,1046.0000,1500.0000,2000.0000
238788.4210,2.0000,2000.0000,1240.0000,2000.0000,69.0000,-117.0000,-11.0000,1043.0000,-878.0000,9555.0000,0.2364,-0.4242,0.2194,0.8462,132.2700,-28.9700,-57.2500,-8.2100,-1.4400,16.9400,0.0000,0.0000,-0.0000,1285.0000,1027.0000,1500.0000,2000.0000
238805.2090,2.0000,2000.0000,1241.0000,2000.0000,56.0000,-116.0000,-11.0000,1020.0000,-860.0000,9587.0000,0.2448,-0.4082,0.2221,0.8510,132.0900,-29.0000,-56.9200,-8.6000,-1.8100,16.7400,0.0000,0.0000,-0.0000,1285.0000,1027.0000,1500.0000,2000.0000
238822.0010,2.0000,2000.0000,1241.0000,2000.0000,39.0000,-125.0000,-13.0000,807.0000,-828.0000,8688.0000,0.2524,-0.3919,0.2227,0.8562,131.8800,-29.0300,-56.5900,-9.1300,-2.2900,16.5200,0.0000,0.0000,-0.0000,1285.0000,1027.0000,1500.0000,2000.0000
238838.6640,2.0000,2000.0000,1241.0000,2000.0000,9.0000,-145.0000,-9.0000,690.0000,-682.0000,8865.0000,0.2591,-0.3744,0.2200,0.8627,131.6600,-29.0800,-56.2600,-9.6500,-2.7600,16.3000,0.0000,0.0000,-0.0000,1285.0000,1027.0000,1500.0000,2000.0000
238855.6670,2.0000,2000.0000,1241.0000,2000.0000,-35.0000,-155.0000,-4.0000,653.0000,-643.0000,9794.0000,0.2636,-0.3559,0.2122,0.8711,131.4300,-29.1300,-55.9400,-10.1100,-3.2000,16.0200,0.0000,0.0000,-0.0000,1285.0000,1027.0000,1500.0000,2000.0000
238872.6640,2.0000,2000.0000,1241.0000,2000.0000,-82.0000,-157.0000,2.0000,848.0000,-833.0000,11394.0000,0.2650,-0.3379,0.1980,0.8811,131.2000,-29.1900,-55.6200,-10.5800,-3.6800,15.6200,0.0000,0.0000,-0.0000,1285.0000,1027.0000,1500.0000,2000.0000
238889.7150,2.0000,2000.0000,1000.0000,1463.0000,-112.0000,-163.0000,1.0000,1007.0000,-967.0000,12789.0000,0.2638,-0.3208,0.1780,0.8921,131.2000,-29.1900,-55.6200,-10.5800,-3.6800,15.6200,0.0000,0.0000,-0.0000,1974.0000,1064.0000,1500.0000,2000.0000
238906.3150,2.0000,2000.0000,1000.0000,1463.0000,-99.0000,-152.0000,6.0000,1285.0000,-1158.0000,14447.0000,0.2622,-0.3039,0.1584,0.9021,130.9700,-29.2600,-55.3200,-11.0900,-4.1900,15.0800,0.0000,0.0000,-0.0000,1974.0000,1064.0000,1500.0000,2000.0000
238923.0440,2.0000,2000.0000,1000.0000,1463.0000,-72.0000,-131.0000,3.0000,1338.0000,-1287.0000,15133.0000,0.2610,-0.2886,0.1419,0.9102,130.7000,-29.3500,-55.0100,-11.7600,-4.8600,14.3600,0.0000,0.0000,-0.0000,1974.0000,1064.0000,1500.0000,2000.0000
238939.6870,2.0000,2000.0000,1000.0000,1463.0000,-17.0000,-120.0000,-5.0000,1131.0000,-936.0000,14108.0000,0.2619,-0.2735,0.1311,0.9162,130.4200,-29.4500,-54.7200,-12.4500,-5.5500,13.5300,0.0000,0.0000,-0.0000,1974.0000,1064.0000,1500.0000,2000.0000
238956.5730,2.0000,2000.0000,1000.0000,1463.0000,38.0000,-102.0000,-20.0000,1063.0000,-921.0000,13351.0000,0.2663,-0.2584,0.1281,0.9197,130.1300,-29.5700,-54.4500,-13.0400,-6.0900,12.7100,0.0000,0.0000,-0.0000,1974.0000,1064.0000,1500.0000,2000.0000
238973.4370,2.0000,2000.0000,1000.0000,1823.0000,85.0000,-82.0000,-32.0000,969.0000,-758.0000,12702.0000,0.2737,-0.2438,0.1322,0.9210,129.8500,-29.6900,-54.2000,-13.5100,-6.5600,11.9300,0.0000,0.0000,-0.0000,1498.0000,1018.0000,1500.0000,2000.0000
238990.6330,2.0000,2000.0000,1018.0000,1982.0000,117.0000,-63.0000,-41.0000,910.0000,-682.0000,12140.0000,0.2836,-0.2303,0.1417,0.9200,129.8500,-29.6900,-54.2000,-13.5100,-6.5600,11.9300,0.0000,0.0000,-0.0000,1498.0000,1018.0000,1500.0000,2000.0000
239007.7350,2.0000,2000.0000,1018.0000,1982.0000,133.0000,-59.0000,-49.0000,784.0000,-845.0000,10993.0000,0.2951,-0.2176,0.1551,0.9173,129.5600,-29.8100,-53.9600,-13.8800,-6.9800,11.1700,0.0000,0.0000,-0.0000,1498.0000,1018.0000,1500.0000,2000.0000
239024.8390,2.0000,2000.0000,1018.0000,1982.0000,120.0000,-75.0000,-54.0000,451.0000,-748.0000,9197.0000,0.3076,-0.2043,0.1681,0.9140,129.2400,-29.9600,-53.7300,-14.2300,-7.4800,10.5000,0.0000,0.0000,-0.0000,1498.0000,1018.0000,1500.0000,2000.0000
239041.8220,2.0000,2000.0000,1018.0000,1982.0000,85.0000,-113.0000,-54.0000,204.0000,-559.0000,7633.0000,0.3200,-0.1883,0.1760,0.9117,128.9100,-30.1200,-53.5100,-14.4800,-7.9300,9.9800,0.0000,0.0000,-0.0000,1498.0000,1018.0000,1500.0000,2000.0000
239058.7140,2.0000,2000.0000,1018.0000,1982.0000,49.0000,-161.0000,-51.0000,110.0000,-720.0000,7461.0000,0.3320,-0.1683,0.1769,0.9111,128.5900,-30.2800,-53.3000,-14.6100,-8.2600,9.5800,0.0000,0.0000,-0.0000,1498.0000,1018.0000,1500.0000,2000.0000
239075.7330,2.0000,2000.0000,1102.0000,2000.0000,21.0000,-196.0000,-46.0000,285.0000,-907.0000,8605.0000,0.3439,-0.1435,0.1711,0.9121,128.2700,-30.4500,-53.1000,-14.6700,-8.5800,9.1700,0.0000,0.0000,-0.0000,1414.0000,1018.0000,1500.0000,2000.0000
239092.2480,2.0000,2000.0000,1103.0000,2000.0000,18.0000,-214.0000,-42.0000,578.0000,-1161.0000,10456.0000,0.3549,-0.1165,0.1622,0.9133,128.2700,-30.4500,-53.1000,-14.6700,-8.5800,9.1700,0.0000,0.0000,-0.0000,1414.0000,1018.0000,1500.0000,2000.0000
239109.0700,2.0000,2000.0000,1103.0000,2000.0000,7.0000,-218.0000,-32.0000,900.0000,-1270.0000,12361.0000,0.3652,-0.0876,0.1521,0.9142,127.9600,-30.6100,-52.9000,-14.7000,-8.9500,8.6100,0.0000,0.0000,-0.0000,1414.0000,1018.0000,1500.0000,2000.0000
239125.7620,2.0000,2000.0000,1103.0000,2000.0000,-11.0000,-210.0000,-19.0000,1155.0000,-1520.0000,13866.0000,0.3734,-0.0597,0.1397,0.9151,127.6600,-30.7900,-52.7200,-14.6900,-9.3700,7.8400,0.0000,0.0000,-0.0000,1414.0000,1018.0000,1500.0000,2000.0000
239142.6290,2.0000,2000.0000,1103.0000,2000.0000,-25.0000,-203.0000,-5.0000,1316.0000,-1649.0000,14749.0000,0.3794,-0.0331,0.1255,0.9161,127.3700,-30.9600,-52.5600,-14.6200,-9.8000,6.8800,0.0000,0.0000,-0.0000,1414.0000,1018.0000,1500.0000,2000.0000
239159.7960,2.0000,2000.0000,1103.0000,2000.0000,-41.0000,-180.0000,2.0000,1308.0000,-1576.0000,15321.0000,0.3831,-0.0085,0.1100,0.9171,127.0900,-31.1400,-52.4100,-14.4900,-10.1800,5.8100,0.0000,0.0000,-0.0000,1414.0000,1018.0000,1500.0000,2000.0000
239176.3490,2.0000,2000.0000,1103.0000,2000.0000,-60.0000,-141.0000,4.0000,1128.0000,-1281.0000,15616.0000,0.3852,0.0100,0.0942,0.9180,126.8200,-31.3200,-52.2900,-14.3000,-10.4600,4.6400,0.0000,0.0000,-0.0000,1414.0000,1018.0000,1500.0000,2000.0000
239193.3080,2.0000,2000.0000,1000.0000,1468.0000,-63.0000,-100.0000,9.0000,982.0000,-1313.0000,15089.0000,0.3861,0.0232,0.0787,0.9188,126.8200,-31.3200,-52.2900,-14.3000,-10.4600,4.6400,0.0000,0.0000,-0.0000,1970.0000,1063.0000,1500.0000,2000.0000
239210.1690,2.0000,2000.0000,1000.0000,1468.0000,-58.0000,-53.0000,10.0000,799.0000,-1258.0000,13571.0000,0.3862,0.0300,0.0661,0.9196,126.5600,-31.5000,-52.1900,-14.0900,-10.6400,3.4400,0.0000,0.0000,-0.0000,1970.0000,1063.0000,1500.0000,2000.0000
239227.0190,2.0000,2000.0000,1000.0000,1468.0000,-33.0000,-22.0000,3.0000,565.0000,-960.0000,11259.0000,0.3861,0.0318,0.0578,0.9201,126.3100,-31.6800,-52.1100,-13.8700,-10.7200,2.3500,0.0000,0.0000,-0.0000,1970.0000,1063.0000,1500.0000,2000.0000
239243.6180,2.0000,2000.0000,1000.0000,1468.0000,7.0000,-3.0000,-4.0000,549.0000,-737.0000,9227.0000,0.3867,0.0330,0.0552,0.9200,126.0700,-31.8500,-52.0600,-13.6900,-10.6900,1.5100,0.0000,0.0000,-0.0000,1970.0000,1063.0000,1500.0000,2000.0000
239260.4060,2.0000,2000.0000,1000.0000,1468.0000,65.0000,-3.0000,-16.0000,582.0000,-854.0000,7801.0000,0.3882,0.0353,0.0599,0.9189,125.8400,-32.0200,-52.0100,-13.5300,-10.5900,0.9000,0.0000,0.0000,-0.0000,1970.0000,1063.0000,1500.0000,2000.0000
239277.4910,2.0000,2000.0000,1000.0000,1468.0000,130.0000,-15.0000,-25.0000,488.0000,-898.0000,5700.0000,0.3908,0.0418,0.0731,0.9166,125.6400,-32.1700,-51.9800,-13.3800,-10.4800,0.5000,0.0000,0.0000,-0.0000,1970.0000,1063.0000,1500.0000,2000.0000
239294.3340,2.0000,2000.0000,1396.0000,2000.0000,160.0000,-36.0000,-33.0000,404.0000,-702.0000,4271.0000,0.3940,0.0533,0.0918,0.9130,125.6400,-32.1700,-51.9800,-13.3800,-10.4800,0.5000,0.0000,0.0000,-0.0000,1128.0000,1024.0000,1500.0000,2000.0000
239311.1550,2.0000,2000.0000,1396.0000,2000.0000,167.0000,-60.0000,-34.0000,442.0000,-709.0000,4481.0000,0.3978,0.0689,0.1118,0.9081,125.4500,-32.3000,-51.9500,-13.2400,-10.3200,0.3200,0.0000,0.0000,-0.0000,1128.0000,1024.0000,1500.0000,2000.0000
239328.1910,2.0000,2000.0000,1396.0000,2000.0000,122.0000,-79.0000,-27.0000,539.0000,-764.0000,5656.0000,0.4014,0.0867,0.1279,0.9028,125.2600,-32.4300,-51.9200,-13.1000,-10.1900,0.1800,0.0000,0.0000,-0.0000,1128.0000,1024.0000,1500.0000,2000.0000
239344.8970,2.0000,2000.0000,1396.0000,2000.0000,47.0000,-101.0000,-11.0000,510.0000,-682.0000,5974.0000,0.4042,0.1031,0.1341,0.8989,125.0900,-32.5600,-51.9000,-12.9100,-10.1000,-0.0200,0.0000,0.0000,-0.0000,1128.0000,1024.0000,1500.0000,2000.0000
239361.9460,2.0000,2000.0000,1396.0000,2000.0000,-21.0000,-122.0000,9.0000,589.0000,-1076.0000,6663.0000,0.4061,0.1184,0.1287,0.8969,124.9200,-32.6800,-51.8800,-12.6900,-10.0200,-0.2800,0.0000,0.0000,-0.0000,1128.0000,1024.0000,1500.0000,2000.0000
239378.7500,2.0000,2000.0000,1000.0000,1543.0000,-70.0000,-146.0000,25.0000,603.0000,-1131.0000,7507.0000,0.4073,0.1337,0.1141,0.8962,124.7500,-32.8000,-51.8700,-12.4100,-9.9500,-0.6000,0.0000,0.0000,-0.0000,1973.0000,1065.0000,1500.0000,2000.0000
239395.7660,2.0000,2000.0000,1000.0000,1463.0000,-106.0000,-164.0000,33.0000,658.0000,-839.0000,8560.0000,0.4079,0.1497,0.0922,0.8959,124.7500,-32.8000,-51.8700,-12.4100,-9.9500,-0.6000,0.0000,0.0000,-0.0000,1973.0000,1065.0000,1500.0000,2000.0000
239412.6220,2.0000,2000.0000,1000.0000,1463.0000,-115.0000,-167.0000,32.0000,832.0000,-581.0000,9531.0000,0.4086,0.1651,0.0662,0.8952,124.6100,-32.9100,-51.8600,-12.1200,-9.8600,-1.0300,0.0000,0.0000,-0.0000,1973.0000,1065.0000,1500.0000,2000.0000
239429.2910,2.0000,2000.0000,1000.0000,1463.0000,-84.0000,-169.0000,23.0000,1076.0000,-587.0000,10685.0000,0.4094,0.1812,0.0421,0.8932,124.4600,-33.0200,-51.8700,-11.8200,-9.7100,-1.5900,0.0000,0.0000,-0.0000,1973.0000,1065.0000,1500.0000,2000.0000
239446.0480,2.0000,2000.0000,1000.0000,1463.0000,-44.0000,-160.0000,8.0000,1323.0000,-753.0000,12134.0000,0.4106,0.1992,0.0235,0.8895,124.3300,-33.1300,-51.8800,-11.4900,-9.5200,-2.2900,0.0000,0.0000,-0.0000,1973.0000,1065.0000,1500.0000,2000.0000
239462.7170,2.0000,2000.0000,1000.0000,1463.0000,8.0000,-143.0000,-7.0000,1393.0000,-887.0000,12903.0000,0.4120,0.2175,0.0119,0.8848,124.2000,-33.2300,-51.9100,-11.1000,-9.2900,-3.1400,0.0000,0.0000,-0.0000,1973.0000,1065.0000,1500.0000,2000.0000
239479.4310,2.0000,2000.0000,1000.0000,1463.0000,73.0000,-123.0000,-22.0000,1373.0000,-944.0000,13090.0000,0.4130,0.2372,0.0098,0.8792,124.0800,-33.3300,-51.9600,-10.6600,-9.0400,-4.0100,0.0000,0.0000,-0.0000,1973.0000,1065.0000,1500.0000,2000.0000
239496.3190,2.0000,2000.0000,1035.0000,1997.0000,118.0000,-93.0000,-32.0000,1407.0000,-1037.0000,13336.0000,0.4135,0.2572,0.0166,0.8732,124.0800,-33.3300,-51.9600,-10.6600,-9.0400,-4.0100,0.0000,0.0000,-0.0000,1482.0000,1019.0000,1500.0000,2000.0000
239513.3280,2.0000,2000.0000,1036.0000,1998.0000,136.0000,-64.0000,-37.0000,1194.0000,-880.0000,12440.0000,0.4135,0.2751,0.0298,0.8674,123.9700,-33.4200,-52.0300,-10.1800,-8.7900,-4.8800,0.0000,0.0000,-0.0000,1482.0000,1019.0000,1500.0000,2000.0000
239530.2460,2.0000,2000.0000,1036.0000,1998.0000,135.0000,-41.0000,-44.0000,1011.0000,-832.0000,11011.0000,0.4134,0.2903,0.0459,0.8618,123.6700,-33.6900,-52.0900,-10.0200,-9.2100,-5.6900,0.0000,0.0000,-0.0000,1482.0000,1019.0000,1500.0000,2000.0000
239546.9410,2.0000,2000.0000,1036.0000,1998.0000,99.0000,-49.0000,-46.0000,903.0000,-645.0000,9168.0000,0.4146,0.3026,0.0600,0.8561,123.3800,-33.9700,-52.1600,-9.9000,-9.6300,-6.3300,0.0000,0.0000,-0.0000,1482.0000,1019.0000,1500.0000,2000.0000
239563.9130,2.0000,2000.0000,1036.0000,1998.0000,45.0000,-68.0000,-43.0000,706.0000,-635.0000,7380.0000,0.4176,0.3141,0.0675,0.8499,123.0900,-34.2500,-52.2400,-9.8900,-10.0700,-6.7700,0.0000,0.0000,-0.0000,1482.0000,1019.0000,1500.0000,2000.0000
239580.7760,2.0000,2000.0000,1417.0000,2000.0000,-3.0000,-93.0000,-36.0000,489.0000,-751.0000,6291.0000,0.4225,0.3249,0.0667,0.8435,122.8100,-34.5300,-52.3200,-9.9600,-10.4900,-7.0400,0.0000,0.0000,-0.0000,1109.0000,1026.0000,1500.0000,2000.0000
239597.4420,2.0000,2000.0000,1417.0000,2000.0000,-26.0000,-119.0000,-26.0000,549.0000,-925.0000,6303.0000,0.4281,0.3367,0.0596,0.8366,122.8100,-34.5300,-52.3200,-9.9600,-10.4900,-7.0400,0.0000,0.0000,-0.0000,1109.0000,1026.0000,1500.0000,2000.0000
239614.2100,2.0000,2000.0000,1417.0000,2000.0000,-42.0000,-146.0000,-16.0000,813.0000,-1112.0000,7835.0000,0.4335,0.3507,0.0480,0.8287,122.5300,-34.8200,-52.4100,-10.0400,-10.8900,-7.2200,0.0000,0.0000,-0.0000,1109.0000,1026.0000,1500.0000,2000.0000
239631.0310,2.0000,2000.0000,1417.0000,2000.0000,-69.0000,-152.0000,-4.0000,1064.0000,-1175.0000,9317.0000,0.4387,0.3656,0.0321,0.8203,122.2200,-35.1500,-52.5000,-9.9200,-11.2500,-7.4900,0.0000,0.0000,-0.0000,1109.0000,1026.0000,1500.0000,2000.0000
239647.9490,2.0000,2000.0000,1417.0000,2000.0000,-98.0000,-144.0000,8.0000,1229.0000,-1125.0000,10365.0000,0.4438,0.3778,0.0119,0.8125,121.9300,-35.4800,-52.6000,-9.6700,-11.5000,-7.8800,0.0000,0.0000,-0.0000,1109.0000,1026.0000,1500.0000,2000.0000
239664.9120,2.0000,2000.0000,1417.0000,2000.0000,-115.0000,-136.0000,19.0000,1437.0000,-1161.0000,10957.0000,0.4483,0.3875,-0.0110,0.8054,121.6500,-35.7900,-52.7100,-9.3600,-11.6400,-8.3500,0.0000,0.0000,-0.0000,1109.0000,1026.0000,1500.0000,2000.0000
239681.7080,2.0000,2000.0000,1000.0000,1231.0000,-129.0000,-125.0000,25.0000,1484.0000,-976.0000,11324.0000,0.4523,0.3947,-0.0353,0.7990,121.4000,-36.1000,-52.8300,-9.0100,-11.6800,-8.8900,0.0000,0.0000,-0.0000,1986.0000,1284.0000,1500.0000,2000.0000
239698.7400,2.0000,2000.0000,1000.0000,1230.0000,-133.0000,-113.0000,28.0000,1506.0000,-852.0000,11641.0000,0.4563,0.3995,-0.0606,0.7928,121.4000,-36.1000,-52.8300,-9.0100,-11.6800,-8.8900,0.0000,0.0000,-0.0000,1986.0000,1284.0000,1500.0000,2000.0000
239715.5510,2.0000,2000.0000,1000.0000,1230.0000,-115.0000,-101.0000,27.0000,1405.0000,-823.0000,10885.0000,0.4595,0.4030,-0.0842,0.7870,121.1300,-36.4400,-52.9700,-8.5700,-11.6300,-9.4600,0.0000,0.0000,-0.0000,1986.0000,1284.0000,1500.0000,2000.0000
239732.2070,2.0000,2000.0000,1000.0000,1230.0000,-69.0000,-105.0000,17.0000,1303.0000,-806.0000,9475.0000,0.4616,0.4076,-0.1032,0.7811,120.8800,-36.7600,-53.1100,-8.1900,-11.5200,-9.9900,0.0000,0.0000,-0.0000,1986.0000,1284.0000,1500.0000,2000.0000
239749.0540,2.0000,2000.0000,1000.0000,1230.0000,-10.0000,-111.0000,1.0000,1240.0000,-571.0000,9043.0000,0.4614,0.4171,-0.1157,0.7744,120.6400,-37.0800,-53.2700,-7.9300,-11.4400,-10.4100,0.0000,0.0000,-0.0000,1986.0000,1284.0000,1500.0000,2000.0000
239765.9210,2.0000,2000.0000,1000.0000,1230.0000,54.0000,-98.0000,-17.0000,1221.0000,-454.0000,9131.0000,0.4593,0.4307,-0.1198,0.7676,120.4200,-37.3900,-53.4300,-7.7200,-11.3300,-10.7800,0.0000,0.0000,-0.0000,1986.0000,1284.0000,1500.0000,2000.0000
239782.5830,2.0000,2000.0000,1283.0000,1597.0000,133.0000,-68.0000,-31.0000,1260.0000,-580.0000,9723.0000,0.4545,0.4468,-0.1133,0.7622,120.4200,-37.3900,-53.4300,-7.7200,-11.3300,-10.7800,0.0000,0.0000,-0.0000,1562.0000,1342.0000,1500.0000,2000.0000
239799.4070,2.0000,2000.0000,1283.0000,1597.0000,203.0000,-30.0000,-41.0000,1162.0000,-519.0000,9316.0000,0.4465,0.4639,-0.0952,0.7592,120.2000,-37.6900,-53.6000,-7.4800,-11.2000,-11.1500,0.0000,0.0000,-0.0000,1562.0000,1342.0000,1500.0000,2000.0000
239816.4860,2.0000,2000.0000,1283.0000,1597.0000,233.0000,3.0000,-52.0000,989.0000,-215.0000,7604.0000,0.4361,0.4802,-0.0675,0.7580,119.9600,-38.0200,-53.7800,-7.1600,-11.0600,-11.5000,0.0000,0.0000,-0.0000,1562.0000,1342.0000,1500.0000,2000.0000
239833.3360,2.0000,2000.0000,1283.0000,1597.0000,200.0000,5.0000,-58.0000,961.0000,-148.0000,5186.0000,0.4266,0.4941,-0.0385,0.7566,119.7300,-38.3500,-53.9600,-6.9500,-11.0300,-11.7400,0.0000,0.0000,-0.0000,1562.0000,1342.0000,1500.0000,2000.0000
239850.4090,2.0000,2000.0000,1283.0000,1597.0000,154.0000,-9.0000,-59.0000,883.0000,-106.0000,2996.0000,0.4202,0.5059,-0.0144,0.7532,119.5100,-38.6700,-54.1400,-6.9300,-11.1800,-11.8200,0.0000,0.0000,-0.0000,1562.0000,1342.0000,1500.0000,2000.0000
239867.3830,2.0000,2000.0000,1283.0000,1597.0000,121.0000,-30.0000,-61.0000,855.0000,-49.0000,2138.0000,0.4164,0.5165,0.0042,0.7482,119.2900,-39.0000,-54.3100,-7.0800,-11.4400,-11.7800,0.0000,0.0000,-0.0000,1562.0000,1342.0000,1500.0000,2000.0000
239884.1570,2.0000,2000.0000,1951.0000,1803.0000,93.0000,-47.0000,-62.0000,947.0000,-255.0000,2383.0000,0.4148,0.5273,0.0183,0.7413,119.2900,-39.0000,-54.3100,-7.0800,-11.4400,-11.7800,0.0000,0.0000,-0.0000,1123.0000,1576.0000,1500.0000,2000.0000
239900.7220,2.0000,2000.0000,1951.0000,1803.0000,71.0000,-60.0000,-63.0000,986.0000,-559.0000,2906.0000,0.4151,0.5378,0.0288,0.7332,119.0600,-39.3300,-54.4900,-7.2400,-11.7000,-11.7100,0.0000,0.0000,-0.0000,1123.0000,1576.0000,1500.0000,2000.0000
239917.4390,2.0000,2000.0000,1951.0000,1803.0000,33.0000,-74.0000,-59.0000,999.0000,-617.0000,3350.0000,0.4175,0.5479,0.0354,0.7240,118.8200,-39.7000,-54.6800,-7.2000,-11.8400,-11.6400,0.0000,0.0000,-0.0000,1123.0000,1576.0000,1500.0000,2000.0000
239934.3290,2.0000,2000.0000,1951.0000,1803.0000,-30.0000,-72.0000,-49.0000,1026.0000,-586.0000,4064.0000,0.4232,0.5556,0.0358,0.7148,118.5900,-40.0500,-54.8700,-7.0900,-11.9300,-11.5700,0.0000,0.0000,-0.0000,1123.0000,1576.0000,1500.0000,2000.0000
239951.1860,2.0000,2000.0000,1951.0000,1803.0000,-99.0000,-55.0000,-36.0000,1071.0000,-791.0000,5163.0000,0.4330,0.5580,0.0287,0.7074,118.3800,-40.3900,-55.0600,-6.8900,-11.9600,-11.5200,0.0000,0.0000,-0.0000,1123.0000,1576.0000,1500.0000,2000.0000
239968.3090,2.0000,2000.0000,1951.0000,1803.0000,-181.0000,-20.0000,-22.0000,1040.0000,-657.0000,5855.0000,0.4476,0.5527,0.0140,0.7029,118.1800,-40.7000,-55.2400,-6.5900,-11.9100,-11.5100,0.0000,0.0000,-0.0000,1123.0000,1576.0000,1500.0000,2000.0000
239985.3340,2.0000,2000.0000,1101.0000,1000.0000,-257.0000,20.0000,-12.0000,1069.0000,-831.0000,5779.0000,0.4670,0.5375,-0.0075,0.7021,118.1800,-40.7000,-55.2400,-6.5900,-11.9100,-11.5100,0.0000,0.0000,-0.0000,1985.0000,1587.0000,1500.0000,2000.0000
240002.2030,2.0000,2000.0000,1101.0000,1000.0000,-312.0000,64.0000,0.0000,1102.0000,-838.0000,4707.0000,0.4898,0.5129,-0.0335,0.7042,118.0100,-41.0000,-55.4400,-6.2600,-11.8100,-11.5500,0.0000,0.0000,-0.0000,1985.0000,1587.0000,1500.0000,2000.0000
240019.1340,2.0000,2000.0000,1101.0000,1000.0000,-316.0000,102.0000,10.0000,1149.0000,-618.0000,3006.0000,0.5129,0.4805,-0.0607,0.7088,117.8300,-41.3200,-55.6400,-5.9200,-11.7100,-11.6000,0.0000,0.0000,-0.0000,1985.0000,1587.0000,1500.0000,2000.0000
240036.0710,2.0000,2000.0000,1101.0000,1000.0000,-260.0000,120.0000,15.0000,1321.0000,-554.0000,1123.0000,0.5324,0.4459,-0.0833,0.7147,117.6600,-41.6300,-55.8500,-5.7700,-11.6800,-11.6000,0.0000,0.0000,-0.0000,1985.0000,1587.0000,1500.0000,2000.0000
240052.9460,2.0000,2000.0000,1101.0000,1000.0000,-168.0000,129.0000,15.0000,1480.0000,-607.0000,-547.0000,0.5457,0.4151,-0.0968,0.7215,117.5000,-41.9400,-56.0500,-5.7700,-11.7800,-11.5300,0.0000,0.0000,-0.0000,1985.0000,1587.0000,1500.0000,2000.0000
240069.6190,2.0000,2000.0000,1101.0000,1000.0000,-18.0000,137.0000,9.0000,982.0000,-492.0000,-2345.0000,0.5520,0.3935,-0.0972,0.7287,117.3300,-42.2400,-56.2500,-5.8700,-11.9800,-11.3300,0.0000,0.0000,-0.0000,1985.0000,1587.0000,1500.0000,2000.0000
240086.5450,2.0000,2000.0000,1000.0000,1312.0000,146.0000,140.0000,-1.0000,620.0000,-260.0000,-3788.0000,0.5495,0.3837,-0.0788,0.7380,117.3300,-42.2400,-56.2500,-5.8700,-11.9800,-11.3300,0.0000,0.0000,-0.0000,1883.0000,1304.0000,1500.0000,2000.0000
240103.4350,2.0000,2000.0000,1000.0000,1313.0000,274.0000,140.0000,-13.0000,613.0000,-33.0000,-4839.0000,0.5395,0.3857,-0.0436,0.7472,117.1700,-42.5400,-56.4500,-6.0300,-12.2100,-11.0500,0.0000,0.0000,-0.0000,1883.0000,1304.0000,1500.0000,2000.0000
240120.3370,2.0000,2000.0000,1000.0000,1313.0000,358.0000,115.0000,-29.0000,733.0000,233.0000,-6054.0000,0.5239,0.3967,0.0031,0.7538,117.0000,-42.8700,-56.6500,-6.1400,-12.4300,-10.6900,0.0000,0.0000,-0.0000,1883.0000,1304.0000,1500.0000,2000.0000
240137.1230,2.0000,2000.0000,1000.0000,1313.0000,377.0000,66.0000,-41.0000,930.0000,371.0000,-6730.0000,0.5053,0.4145,0.0535,0.7550,116.8300,-43.2000,-56.8700,-6.3900,-12.6400,-10.3300,0.0000,0.0000,-0.0000,1883.0000,1304.0000,1500.0000,2000.0000
240154.0610,2.0000,2000.0000,1000.0000,1313.0000,359.0000,0.0000,-48.0000,696.0000,377.0000,-6311.0000,0.4867,0.4372,0.0999,0.7497,116.6600,-43.5200,-57.0900,-6.7100,-12.8000,-9.9500,0.0000,0.0000,-0.0000,1883.0000,1304.0000,1500.0000,2000.0000
240170.9700,2.0000,2000.0000,1000.0000,1313.0000,347.0000,-45.0000,-52.0000,813.0000,33.0000,-4405.0000,0.4694,0.4640,0.1402,0.7381,116.4900,-43.8200,-57.3000,-6.9700,-12.8600,-9.6500,0.0000,0.0000,-0.0000,1883.0000,1304.0000,1500.0000,2000.0000
240187.6560,2.0000,2000.0000,1582.0000,2000.0000,335.0000,-72.0000,-53.0000,968.0000,-300.0000,-2113.0000,0.4528,0.4919,0.1760,0.7225,116.4900,-43.8200,-57.3000,-6.9700,-12.8600,-9.6500,0.0000,0.0000,-0.0000,1137.0000,1220.0000,1500.0000,2000.0000
240204.5040,2.0000,2000.0000,1583.0000,2000.0000,337.0000,-99.0000,-53.0000,947.0000,-554.0000,-209.0000,0.4360,0.5216,0.2096,0.7028,116.3200,-44.1300,-57.5200,-6.9900,-12.8600,-9.4400,0.0000,0.0000,-0.0000,1137.0000,1220.0000,1500.0000,2000.0000
240221.3650,2.0000,2000.0000,1583.0000,2000.0000,314.0000,-104.0000,-45.0000,1033.0000,-593.0000,1444.0000,0.4186,0.5508,0.2406,0.6808,116.1500,-44.4600,-57.7500,-6.7700,-12.8200,-9.2700,0.0000,0.0000,-0.0000,1137.0000,1220.0000,1500.0000,2000.0000
240238.3870,2.0000,2000.0000,1583.0000,2000.0000,242.0000,-109.0000,-31.0000,1130.0000,-653.0000,2579.0000,0.4033,0.5772,0.2651,0.6587,115.9900,-44.7900,-57.9800,-6.3700,-12.7400,-9.0300,0.0000,0.0000,-0.0000,1137.0000,1220.0000,1500.0000,2000.0000
240255.4050,2.0000,2000.0000,1583.0000,2000.0000,147.0000,-115.0000,-7.0000,1365.0000,-972.0000,3937.0000,0.3928,0.5988,0.2788,0.6399,115.8500,-45.0900,-58.1800,-5.8700,-12.6700,-8.7900,0.0000,0.0000,-0.0000,1137.0000,1220.0000,1500.0000,2000.0000
240272.1270,2.0000,2000.0000,1376.0000,2000.0000,46.0000,-115.0000,20.0000,1333.0000,-1057.0000,4790.0000,0.3882,0.6153,0.2808,0.6260,115.7200,-45.3700,-58.3700,-5.2900,-12.6100,-8.5400,0.0000,0.0000,-0.0000,1150.0000,1025.0000,1500.0000,2000.0000
240289.0620,2.0000,2000.0000,1375.0000,2000.0000,-40.0000,-115.0000,44.0000,1261.0000,-1059.0000,5578.0000,0.3896,0.6272,0.2713,0.6174,115.7200,-45.3700,-58.3700,-5.2900,-12.6100,-8.5400,0.0000,0.0000,-0.0000,1150.0000,1025.0000,1500.0000,2000.0000
240305.9350,2.0000,2000.0000,1375.0000,2000.0000,-102.0000,-107.0000,60.0000,1195.0000,-691.0000,6060.0000,0.3960,0.6350,0.2533,0.6131,115.6100,-45.6600,-58.5500,-4.6500,-12.5600,-8.2900,0.0000,0.0000,-0.0000,1150.0000,1025.0000,1500.0000,2000.0000
240322.6840,2.0000,2000.0000,1375.0000,2000.0000,-134.0000,-108.0000,67.0000,1277.0000,-645.0000,6043.0000,0.4052,0.6396,0.2302,0.6113,115.5100,-45.9600,-58.7200,-4.0000,-12.5300,-8.0600,0.0000,0.0000,-0.0000,1150.0000,1025.0000,1500.0000,2000.0000
240339.6550,2.0000,2000.0000,1375.0000,2000.0000,-139.0000,-120.0000,66.0000,1248.0000,-374.0000,5875.0000,0.4158,0.6436,0.2047,0.6091,115.4200,-46.2400,-58.8800,-3.4000,-12.4600,-7.8800,0.0000,0.0000,-0.0000,1150.0000,1025.0000,1500.0000,2000.0000
240356.5640,2.0000,2000.0000,1375.0000,2000.0000,-139.0000,-131.0000,60.0000,1325.0000,-97.0000,6311.0000,0.4268,0.6480,0.1784,0.6050,115.3600,-46.5100,-59.0300,-2.8400,-12.3400,-7.7400,0.0000,0.0000,-0.0000,1150.0000,1025.0000,1500.0000,2000.0000
240373.5490,2.0000,2000.0000,1503.0000,1631.0000,-134.0000,-137.0000,51.0000,1371.0000,-63.0000,6497.0000,0.4383,0.6524,0.1524,0.5992,115.3000,-46.7700,-59.1800,-2.2900,-12.1600,-7.6400,0.0000,0.0000,-0.0000,1432.0000,1435.0000,1500.0000,2000.0000
240390.3780,2.0000,2000.0000,1503.0000,1631.0000,-136.0000,-145.0000,41.0000,1386.0000,-12.0000,6675.0000,0.4499,0.6569,0.1272,0.5914,115.3000,-46.7700,-59.1800,-2.2900,-12.1600,-7.6400,0.0000,0.0000,-0.0000,1432.0000,1435.0000,1500.0000,2000.0000
240407.3550,2.0000,2000.0000,1503.0000,1631.0000,-142.0000,-149.0000,28.0000,1489.0000,-219.0000,7360.0000,0.4630,0.6608,0.1019,0.5819,115.2500,-47.0300,-59.3200,-1.7700,-11.9700,-7.5800,0.0000,0.0000,-0.0000,1432.0000,1435.0000,1500.0000,2000.0000
240424.1010,2.0000,2000.0000,1503.0000,1631.0000,-151.0000,-137.0000,14.0000,1554.0000,-108.0000,7853.0000,0.4769,0.6631,0.0781,0.5716,115.2100,-47.3100,-59.4700,-1.2400,-11.8100,-7.5100,0.0000,0.0000,-0.0000,1432.0000,1435.0000,1500.0000,2000.0000
240441.1700,2.0000,2000.0000,1503.0000,1631.0000,-159.0000,-119.0000,1.0000,1736.0000,-146.0000,8639.0000,0.4922,0.6629,0.0558,0.5614,115.1800,-47.5700,-59.6100,-0.7100,-11.5800,-7.4700,0.0000,0.0000,-0.0000,1432.0000,1435.0000,1500.0000,2000.0000
240458.3800,2.0000,2000.0000,1503.0000,1631.0000,-164.0000,-95.0000,-10.0000,1908.0000,-212.0000,9251.0000,0.5089,0.6597,0.0353,0.5519,115.1600,-47.8200,-59.7400,-0.1600,-11.2700,-7.4600,0.0000,0.0000,-0.0000,1432.0000,1435.0000,1500.0000,2000.0000
240475.2970,2.0000,2000.0000,1342.0000,1674.0000,-168.0000,-71.0000,-19.0000,1880.0000,-85.0000,9056.0000,0.5263,0.6535,0.0173,0.5438,115.1500,-48.0500,-59.8800,0.3700,-10.9000,-7.4800,0.0000,0.0000,-0.0000,1505.0000,1311.0000,1500.0000,2000.0000
240492.0150,2.0000,2000.0000,1309.0000,1685.0000,-163.0000,-52.0000,-29.0000,1701.0000,21.0000,8181.0000,0.5439,0.6451,0.0023,0.5367,115.1500,-48.0500,-59.8800,0.3700,-10.9000,-7.4800,0.0000,0.0000,-0.0000,1505.0000,1311.0000,1500.0000,2000.0000
240509.0580,2.0000,2000.0000,1309.0000,1685.0000,-158.0000,-38.0000,-35.0000,1608.0000,-32.0000,7240.0000,0.5613,0.6354,-0.0104,0.5303,115.1500,-48.2900,-60.0200,0.8400,-10.5500,-7.5200,0.0000,0.0000,-0.0000,1505.0000,1311.0000,1500.0000,2000.0000
240525.8270,2.0000,2000.0000,1309.0000,1685.0000,-138.0000,-40.0000,-42.0000,1579.0000,-182.0000,6346.0000,0.5773,0.6261,-0.0208,0.5237,115.1600,-48.5300,-60.1600,1.2200,-10.3100,-7.5700,0.0000,0.0000,-0.0000,1505.0000,1311.0000,1500.0000,2000.0000
240542.8710,2.0000,2000.0000,1309.0000,1685.0000,-102.0000,-43.0000,-47.0000,1449.0000,-272.0000,5899.0000,0.5911,0.6191,-0.0289,0.5163,115.1700,-48.7600,-60.3000,1.5100,-10.1200,-7.6000,0.0000,0.0000,-0.0000,1505.0000,1311.0000,1500.0000,2000.0000
240559.9890,2.0000,2000.0000,1309.0000,1685.0000,-70.0000,-43.0000,-51.0000,1356.0000,-253.0000,5627.0000,0.6020,0.6151,-0.0342,0.5080,115.1900,-48.9800,-60.4400,1.7400,-9.9600,-7.6100,0.0000,0.0000,-0.0000,1505.0000,1311.0000,1500.0000,2000.0000
240576.8360,2.0000,2000.0000,1748.0000,1906.0000,-44.0000,-48.0000,-53.0000,1376.0000,-457.0000,5516.0000,0.6105,0.6137,-0.0374,0.4993,115.2100,-49.2000,-60.5800,1.9300,-9.8100,-7.6000,0.0000,0.0000,-0.0000,1171.0000,1420.0000,1500.0000,2000.0000
240593.4180,2.0000,2000.0000,1750.0000,1908.0000,-33.0000,-48.0000,-53.0000,1512.0000,-514.0000,5473.0000,0.6173,0.6139,-0.0393,0.4905,115.2100,-49.2000,-60.5800,1.9300,-9.8100,-7.6000,0.0000,0.0000,-0.0000,1171.0000,1420.0000,1500.0000,2000.0000
240610.4050,2.0000,2000.0000,1750.0000,1908.0000,-24.0000,-49.0000,-52.0000,1375.0000,-261.0000,4604.0000,0.6230,0.6152,-0.0406,0.4813,115.2400,-49.4200,-60.7300,2.2000,-9.6500,-7.5900,0.0000,0.0000,-0.0000,1171.0000,1420.0000,1500.0000,2000.0000
240627.2400,2.0000,2000.0000,1750.0000,1908.0000,-58.0000,-48.0000,-50.0000,1369.0000,-53.0000,4488.0000,0.6296,0.6154,-0.0427,0.4723,115.2800,-49.6400,-60.8700,2.5600,-9.4900,-7.5700,0.0000,0.0000,-0.0000,1171.0000,1420.0000,1500.0000,2000.0000
240644.2000,2.0000,2000.0000,1750.0000,1908.0000,-114.0000,-39.0000,-42.0000,1410.0000,-483.0000,5004.0000,0.6399,0.6110,-0.0482,0.4636,115.3200,-49.8600,-61.0100,2.8600,-9.3600,-7.5500,0.0000,0.0000,-0.0000,1171.0000,1420.0000,1500.0000,2000.0000
240661.4520,2.0000,2000.0000,1750.0000,1908.0000,-173.0000,-22.0000,-35.0000,1324.0000,-552.0000,4941.0000,0.6554,0.5991,-0.0573,0.4563,115.3700,-50.0700,-61.1500,3.1800,-9.1900,-7.5200,0.0000,0.0000,-0.0000,1171.0000,1420.0000,1500.0000,2000.0000
240678.1000,2.0000,2000.0000,1594.0000,1440.0000,-228.0000,-4.0000,-29.0000,1204.0000,-372.0000,4396.0000,0.6745,0.5808,-0.0687,0.4506,115.4300,-50.2700,-61.2900,3.4500,-9.0300,-7.5000,0.0000,0.0000,-0.0000,1482.0000,1580.0000,1500.0000,2000.0000
240695.2100,2.0000,2000.0000,1595.0000,1439.0000,-260.0000,15.0000,-22.0000,1107.0000,-200.0000,3699.0000,0.6969,0.5555,-0.0821,0.4461,115.4300,-50.2700,-61.2900,3.4500,-9.0300,-7.5000,0.0000,0.0000,-0.0000,1482.0000,1580.0000,1500.0000,2000.0000
240712.2450,2.0000,2000.0000,1595.0000,1439.0000,-276.0000,30.0000,-19.0000,1141.0000,-315.0000,3075.0000,0.7203,0.5256,-0.0959,0.4424,115.4900,-50.4700,-61.4400,3.7300,-8.9000,-7.4800,0.0000,0.0000,-0.0000,1482.0000,1580.0000,1500.0000,2000.0000
240729.3250,2.0000,2000.0000,1595.0000,1439.0000,-254.0000,38.0000,-21.0000,1239.0000,-289.0000,2285.0000,0.7420,0.4948,-0.1078,0.4393,115.5800,-50.6900,-61.5800,4.0700,-8.8300,-7.4700,0.0000,0.0000,-0.0000,1482.0000,1580.0000,1500.0000,2000.0000
240746.3120,2.0000,2000.0000,1595.0000,1439.0000,-218.0000,50.0000,-24.0000,1503.0000,-342.0000,2257.0000,0.7607,0.4659,-0.1163,0.4366,115.6600,-50.9000,-61.7200,4.3700,-8.8400,-7.4500,0.0000,0.0000,-0.0000,1482.0000,1580.0000,1500.0000,2000.0000
240763.3490,2.0000,2000.0000,1595.0000,1439.0000,-178.0000,64.0000,-31.0000,1626.0000,-337.0000,2139.0000,0.7767,0.4403,-0.1205,0.4341,115.7600,-51.1000,-61.8600,4.6600,-8.8800,-7.4500,0.0000,0.0000,-0.0000,1482.0000,1580.0000,1500.0000,2000.0000
240780.0190,2.0000,2000.0000,1178.0000,1172.0000,-153.0000,78.0000,-39.0000,1494.0000,-30.0000,1393.0000,0.7904,0.4176,-0.1203,0.4318,115.8500,-51.3000,-62.0100,4.9200,-8.9400,-7.4700,0.0000,0.0000,-0.0000,1978.0000,1469.0000,1500.0000,2000.0000
240797.0230,2.0000,2000.0000,1000.0000,1053.0000,-121.0000,93.0000,-40.0000,1332.0000,9.0000,612.0000,0.8029,0.3964,-0.1164,0.4299,115.9600,-51.5100,-62.1600,5.2100,-9.0500,-7.4400,0.0000,0.0000,-0.0000,1978.0000,1469.0000,1500.0000,2000.0000
240813.6790,2.0000,2000.0000,1000.0000,1053.0000,-72.0000,109.0000,-44.0000,1206.0000,57.0000,-390.0000,0.8129,0.3790,-0.1084,0.4288,115.9600,-51.5100,-62.1600,5.2100,-9.0500,-7.4400,0.0000,0.0000,-0.0000,1978.0000,1469.0000,1500.0000,2000.0000
240830.9020,2.0000,2000.0000,1000.0000,1053.0000,31.0000,114.0000,-52.0000,1204.0000,-20.0000,-1270.0000,0.8190,0.3698,-0.0936,0.4286,116.0900,-51.7300,-62.3100,5.5800,-9.1900,-7.3300,0.0000,0.0000,-0.0000,1978.0000,1469.0000,1500.0000,2000.0000
240847.9430,2.0000,2000.0000,1000.0000,1053.0000,151.0000,125.0000,-64.0000,989.0000,-117.0000,-2447.0000,0.8191,0.3742,-0.0701,0.4290,116.2300,-51.9500,-62.4600,5.9100,-9.3800,-7.1700,0.0000,0.0000,-0.0000,1978.0000,1469.0000,1500.0000,2000.0000
240864.8070,2.0000,2000.0000,1000.0000,1053.0000,265.0000,119.0000,-76.0000,984.0000,-168.0000,-3581.0000,0.8127,0.3923,-0.0378,0.4292,116.3700,-52.1600,-62.6100,6.1900,-9.6300,-6.9100,0.0000,0.0000,-0.0000,1978.0000,1469.0000,1500.0000,2000.0000
240881.6510,2.0000,2000.0000,1788.0000,1814.0000,354.0000,115.0000,-83.0000,918.0000,-127.0000,-4780.0000,0.7998,0.4218,0.0000,0.4271,116.5100,-52.3800,-62.7700,6.3900,-9.9400,-6.5900,0.0000,0.0000,-0.0000,1190.0000,1486.0000,1500.0000,2000.0000
240898.8440,2.0000,2000.0000,1797.0000,1823.0000,389.0000,85.0000,-88.0000,870.0000,-29.0000,-5475.0000,0.7803,0.4604,0.0409,0.4213,116.6700,-52.6100,-62.9200,6.5600,-10.2800,-6.2800,0.0000,0.0000,-0.0000,1190.0000,1486.0000,1500.0000,2000.0000
240915.9530,2.0000,2000.0000,1797.0000,1823.0000,383.0000,38.0000,-89.0000,875.0000,-188.0000,-5103.0000,0.7578,0.5008,0.0780,0.4109,116.6700,-52.6100,-62.9200,6.5600,-10.2800,-6.2800,0.0000,0.0000,-0.0000,1190.0000,1486.0000,1500.0000,2000.0000
240932.8640,2.0000,2000.0000,1797.0000,1823.0000,349.0000,12.0000,-78.0000,1037.0000,-448.0000,-3631.0000,0.7350,0.5387,0.1081,0.3974,116.8500,-52.8500,-63.0900,6.7400,-10.6000,-6.0100,0.0000,0.0000,-0.0000,1190.0000,1486.0000,1500.0000,2000.0000
240949.8820,2.0000,2000.0000,1797.0000,1823.0000,298.0000,-5.0000,-65.0000,1355.0000,-563.0000,-2097.0000,0.7127,0.5726,0.1324,0.3830,117.0200,-53.0900,-63.2600,6.9500,-10.8000,-5.7600,0.0000,0.0000,-0.0000,1190.0000,1486.0000,1500.0000,2000.0000
240966.9540,2.0000,2000.0000,1797.0000,1823.0000,184.0000,-11.0000,-44.0000,1475.0000,-420.0000,-1260.0000,0.6950,0.5978,0.1493,0.3705,117.2000,-53.3200,-63.4200,7.2500,-10.8800,-5.5700,0.0000,0.0000,-0.0000,1190.0000,1486.0000,1500.0000,2000.0000
240983.7520,2.0000,2000.0000,1889.0000,1877.0000,50.0000,-15.0000,-22.0000,1548.0000,-650.0000,-340.0000,0.6871,0.6096,0.1566,0.3630,117.3700,-53.5500,-63.5900,7.6100,-10.8900,-5.3900,0.0000,0.0000,-0.0000,1117.0000,1508.0000,1500.0000,2000.0000
241000.5890,2.0000,2000.0000,1889.0000,1877.0000,-69.0000,-9.0000,6.0000,1427.0000,-1021.0000,310.0000,0.6895,0.6087,0.1547,0.3608,117.5700,-53.7800,-63.7500,8.0400,-10.8400,-5.1600,0.0000,0.0000,-0.0000,1117.0000,1508.0000,1500.0000,2000.0000
241017.6420,2.0000,2000.0000,1889.0000,1877.0000,-158.0000,2.0000,29.0000,1155.0000,-1066.0000,626.0000,0.6993,0.5973,0.1460,0.3644,117.5700,-53.7800,-63.7500,8.0400,-10.8400,-5.1600,0.0000,0.0000,-0.0000,1117.0000,1508.0000,1500.0000,2000.0000
241034.3560,2.0000,2000.0000,1889.0000,1877.0000,-228.0000,15.0000,46.0000,1014.0000,-782.0000,559.0000,0.7142,0.5774,0.1327,0.3726,117.7900,-54.0200,-63.9000,8.4900,-10.7700,-4.9000,0.0000,0.0000,-0.0000,1117.0000,1508.0000,1500.0000,2000.0000
241051.3450,2.0000,2000.0000,1889.0000,1877.0000,-274.0000,36.0000,60.0000,965.0000,-475.0000,299.0000,0.7322,0.5498,0.1165,0.3848,118.0100,-54.2500,-64.0300,8.8800,-10.6700,-4.6600,0.0000,0.0000,-0.0000,1117.0000,1508.0000,1500.0000,2000.0000
241068.1060,2.0000,2000.0000,1889.0000,1877.0000,-321.0000,45.0000,68.0000,1032.0000,-414.0000,137.0000,0.7513,0.5163,0.0985,0.3991,118.2300,-54.4700,-64.1600,9.1800,-10.6000,-4.4700,0.0000,0.0000,-0.0000,1117.0000,1508.0000,1500.0000,2000.0000
241084.9090,2.0000,2000.0000,1000.0000,1418.0000,-357.0000,58.0000,73.0000,997.0000,-84.0000,-265.0000,0.7714,0.4761,0.0785,0.4148,118.4400,-54.6800,-64.2900,9.4500,-10.5400,-4.2900,0.0000,0.0000,-0.0000,1978.0000,1105.0000,1500.0000,2000.0000
241101.7520,2.0000,2000.0000,1000.0000,1418.0000,-381.0000,60.0000,70.0000,878.0000,247.0000,-813.0000,0.7914,0.4304,0.0571,0.4304,118.6800,-54.9000,-64.4100,9.6800,-10.5700,-4.1300,0.0000,0.0000,-0.0000,1978.0000,1105.0000,1500.0000,2000.0000
241118.6200,2.0000,2000.0000,1000.0000,1418.0000,-366.0000,66.0000,62.0000,1104.0000,242.0000,-934.0000,0.8094,0.3822,0.0362,0.4443,118.6800,-54.9000,-64.4100,9.6800,-10.5700,-4.1300,0.0000,0.0000,-0.0000,1978.0000,1105.0000,1500.0000,2000.0000
241135.3420,2.0000,2000.0000,1000.0000,1418.0000,-307.0000,60.0000,44.0000,1164.0000,514.0000,-1284.0000,0.8236,0.3381,0.0185,0.4549,118.9300,-55.1300,-64.5300,9.8700,-10.6600,-3.9500,0.0000,0.0000,-0.0000,1978.0000,1105.0000,1500.0000,2000.0000
241152.0870,2.0000,2000.0000,1000.0000,1418.0000,-227.0000,50.0000,20.0000,1236.0000,562.0000,-1489.0000,0.8340,0.3022,0.0057,0.4616,119.1700,-55.3500,-64.6400,10.0400,-10.7700,-3.7400,0.0000,0.0000,-0.0000,1978.0000,1105.0000,1500.0000,2000.0000
241168.6590,2.0000,2000.0000,1000.0000,1418.0000,-123.0000,36.0000,-16.0000,1173.0000,882.0000,-1533.0000,0.8414,0.2784,-0.0006,0.4631,119.4100,-55.5700,-64.7500,10.1700,-10.8900,-3.5500,0.0000,0.0000,-0.0000,1978.0000,1105.0000,1500.0000,2000.0000
241185.3270,2.0000,2000.0000,1000.0000,1705.0000,-20.0000,1.0000,-51.0000,1043.0000,867.0000,-1476.0000,0.8468,0.2691,-0.0020,0.4589,119.6400,-55.7900,-64.8600,10.2600,-11.0000,-3.3300,0.0000,0.0000,-0.0000,1766.0000,1029.0000,1500.0000,2000.0000
241202.0240,2.0000,2000.0000,1000.0000,1706.0000,49.0000,-22.0000,-81.0000,868.0000,568.0000,-1360.0000,0.8508,0.2720,0.0004,0.4496,119.6400,-55.7900,-64.8600,10.2600,-11.0000,-3.3300,0.0000,0.0000,-0.0000,1766.0000,1029.0000,1500.0000,2000.0000
241218.8110,2.0000,2000.0000,1000.0000,1706.0000,83.0000,-51.0000,-104.0000,860.0000,408.0000,-676.0000,0.8544,0.2829,0.0037,0.4358,119.8900,-56.0200,-64.9600,10.4000,-11.1000,-3.0900,0.0000,0.0000,-0.0000,1766.0000,1029.0000,1500.0000,2000.0000
241235.5180,2.0000,2000.0000,1000.0000,1706.0000,90.0000,-86.0000,-117.0000,877.0000,62.0000,478.0000,0.8579,0.2980,0.0053,0.4186,120.1600,-56.2500,-65.0600,10.5800,-11.1600,-2.8400,0.0000,0.0000,-0.0000,1766.0000,1029.0000,1500.0000,2000.0000
241252.0800,2.0000,2000.0000,1000.0000,1706.0000,88.0000,-108.0000,-120.0000,798.0000,-276.0000,1773.0000,0.8613,0.3148,0.0032,0.3989,120.4300,-56.4800,-65.1600,10.8000,-11.1300,-2.6900,0.0000,0.0000,-0.0000,1766.0000,1029.0000,1500.0000,2000.0000
241269.0880,2.0000,2000.0000,1000.0000,1706.0000,89.0000,-134.0000,-118.0000,921.0000,-640.0000,3120.0000,0.8641,0.3331,-0.0014,0.3773,120.6800,-56.7000,-65.2400,11.0600,-10.9900,-2.6000,0.0000,0.0000,-0.0000,1766.0000,1029.0000,1500.0000,2000.0000
241285.7050,2.0000,2000.0000,1408.0000,2000.0000,83.0000,-155.0000,-114.0000,1052.0000,-837.0000,4672.0000,0.8661,0.3516,-0.0094,0.3551,120.9300,-56.9100,-65.3200,11.3600,-10.7400,-2.6100,0.0000,0.0000,-0.0000,1117.0000,1025.0000,1500.0000,2000.0000
241302.3270,2.0000,2000.0000,1408.0000,2000.0000,70.0000,-172.0000,-106.0000,1209.0000,-930.0000,6136.0000,0.8674,0.3697,-0.0207,0.3324,120.9300,-56.9100,-65.3200,11.3600,-10.7400,-2.6100,0.0000,0.0000,-0.0000,1117.0000,1025.0000,1500.0000,2000.0000
241319.0200,2.0000,2000.0000,1408.0000,2000.0000,47.0000,-180.0000,-90.0000,1442.0000,-1146.0000,7728.0000,0.8681,0.3858,-0.0349,0.3103,121.2100,-57.1300,-65.3900,11.7000,-10.4300,-2.7300,0.0000,0.0000,-0.0000,1117.0000,1025.0000,1500.0000,2000.0000
241335.6990,2.0000,2000.0000,1408.0000,2000.0000,11.0000,-171.0000,-69.0000,1612.0000,-1212.0000,8767.0000,0.8690,0.3976,-0.0513,0.2902,121.5000,-57.3400,-65.4600,12.0500,-10.0200,-2.9300,0.0000,0.0000,-0.0000,1117.0000,1025.0000,1500.0000,2000.0000
241352.5360,2.0000,2000.0000,1408.0000,2000.0000,-14.0000,-159.0000,-47.0000,1787.0000,-1579.0000,9600.0000,0.8702,0.4044,-0.0694,0.2728,121.7800,-57.5500,-65.5300,12.3900,-9.5100,-3.2100,0.0000,0.0000,-0.0000,1117.0000,1025.0000,1500.0000,2000.0000
241369.1990,2.0000,2000.0000,1408.0000,2000.0000,-25.0000,-142.0000,-29.0000,1872.0000,-1635.0000,9992.0000,0.8711,0.4081,-0.0870,0.2589,122.0700,-57.7300,-65.6000,12.6900,-8.9100,-3.5300,0.0000,0.0000,-0.0000,1117.0000,1025.0000,1500.0000,2000.0000
241385.9830,2.0000,2000.0000,1384.0000,2000.0000,-33.0000,-126.0000,-16.0000,1926.0000,-1569.0000,10344.0000,0.8718,0.4097,-0.1038,0.2477,122.3500,-57.9000,-65.6700,12.9400,-8.2800,-3.9000,0.0000,0.0000,-0.0000,1151.0000,1035.0000,1500.0000,2000.0000
241402.5760,2.0000,2000.0000,1384.0000,2000.0000,-39.0000,-101.0000,-1.0000,1724.0000,-1438.0000,10041.0000,0.8724,0.4091,-0.1187,0.2397,122.3500,-57.9000,-65.6700,12.9400,-8.2800,-3.9000,0.0000,0.0000,-0.0000,1151.0000,1035.0000,1500.0000,2000.0000
241419.4360,2.0000,2000.0000,1384.0000,2000.0000,-31.0000,-71.0000,15.0000,1576.0000,-1478.0000,9383.0000,0.8728,0.4072,-0.1308,0.2353,122.6500,-58.0700,-65.7500,13.1500,-7.7300,-4.2700,0.0000,0.0000,-0.0000,1151.0000,1035.0000,1500.0000,2000.0000
241436.3370,2.0000,2000.0000,1384.0000,2000.0000,-17.0000,-52.0000,31.0000,1398.0000,-1287.0000,8289.0000,0.8721,0.4058,-0.1406,0.2346,122.9600,-58.2500,-65.8300,13.3200,-7.2600,-4.6100,0.0000,0.0000,-0.0000,1151.0000,1035.0000,1500.0000,2000.0000
241453.2960,2.0000,2000.0000,1384.0000,2000.0000,-15.0000,-43.0000,44.0000,1281.0000,-996.0000,6860.0000,0.8706,0.4048,-0.1492,0.2366,123.2600,-58.4000,-65.9200,13.4200,-6.9400,-4.8700,0.0000,0.0000,-0.0000,1151.0000,1035.0000,1500.0000,2000.0000
241470.2780,2.0000,2000.0000,1384.0000,2000.0000,-24.0000,-43.0000,57.0000,1309.0000,-961.0000,6461.0000,0.8688,0.4029,-0.1584,0.2405,123.5500,-58.5500,-66.0100,13.4800,-6.7300,-5.0600,0.0000,0.0000,-0.0000,1151.0000,1035.0000,1500.0000,2000.0000
241487.0080,2.0000,2000.0000,1302.0000,2000.0000,-33.0000,-37.0000,66.0000,1276.0000,-959.0000,6105.0000,0.8672,0.3993,-0.1679,0.2456,123.8300,-58.6900,-66.1000,13.5200,-6.5600,-5.2400,0.0000,0.0000,-0.0000,1228.0000,1029.0000,1500.0000,2000.0000
241504.0540,2.0000,2000.0000,1301.0000,2000.0000,-43.0000,-38.0000,71.0000,1275.0000,-665.0000,5577.0000,0.8659,0.3939,-0.1779,0.2517,123.8300,-58.6900,-66.1000,13.5200,-6.5600,-5.2400,0.0000,0.0000,-0.0000,1228.0000,1029.0000,1500.0000,2000.0000
241520.8700,2.0000,2000.0000,1301.0000,2000.0000,-53.0000,-54.0000,70.0000,1248.0000,-409.0000,4952.0000,0.8648,0.3875,-0.1897,0.2568,124.1300,-58.8400,-66.2000,13.5700,-6.3400,-5.4000,0.0000,0.0000,-0.0000,1228.0000,1029.0000,1500.0000,2000.0000
241537.4550,2.0000,2000.0000,1301.0000,2000.0000,-72.0000,-71.0000,65.0000,1174.0000,-92.0000,4609.0000,0.8639,0.3801,-0.2037,0.2601,124.4400,-58.9800,-66.3000,13.5900,-6.1800,-5.5400,0.0000,0.0000,-0.0000,1228.0000,1029.0000,1500.0000,2000.0000
241554.2020,2.0000,2000.0000,1301.0000,2000.0000,-86.0000,-87.0000,56.0000,1088.0000,211.0000,4697.0000,0.8635,0.3712,-0.2200,0.2610,124.7400,-59.1200,-66.4100,13.5600,-6.0700,-5.6800,0.0000,0.0000,-0.0000,1228.0000,1029.0000,1500.0000,2000.0000
241571.1100,2.0000,2000.0000,1209.0000,2000.0000,-95.0000,-104.0000,43.0000,1249.0000,182.0000,5442.0000,0.8632,0.3616,-0.2384,0.2592,125.0200,-59.2600,-66.5200,13.4900,-5.9500,-5.8500,0.0000,0.0000,-0.0000,1355.0000,1024.0000,1500.0000,2000.0000
241588.1460,2.0000,2000.0000,1168.0000,2000.0000,-101.0000,-119.0000,25.0000,1286.0000,212.0000,5699.0000,0.8629,0.3522,-0.2582,0.2543,125.2900,-59.3800,-66.6300,13.3800,-5.8000,-6.0800,0.0000,0.0000,-0.0000,1355.0000,1024.0000,1500.0000,2000.0000
241604.7080,2.0000,2000.0000,1168.0000,2000.0000,-105.0000,-134.0000,9.0000,1304.0000,359.0000,5856.0000,0.8625,0.3433,-0.2787,0.2460,125.2900,-59.3800,-66.6300,13.3800,-5.8000,-6.0800,0.0000,0.0000,-0.0000,1355.0000,1024.0000,1500.0000,2000.0000
241621.5440,2.0000,2000.0000,1168.0000,2000.0000,-107.0000,-148.0000,-10.0000,1357.0000,356.0000,6228.0000,0.8618,0.3348,-0.3004,0.2344,125.5900,-59.5200,-66.7500,13.3000,-5.5400,-6.3300,0.0000,0.0000,-0.0000,1355.0000,1024.0000,1500.0000,2000.0000
241638.5650,2.0000,2000.0000,1168.0000,2000.0000,-98.0000,-154.0000,-25.0000,1452.0000,209.0000,6475.0000,0.8603,0.3279,-0.3224,0.2199,125.8900,-59.6500,-66.8700,13.2000,-5.2300,-6.5900,0.0000,0.0000,-0.0000,1355.0000,1024.0000,1500.0000,2000.0000
241655.1350,2.0000,2000.0000,1168.0000,2000.0000,-92.0000,-150.0000,-35.0000,1576.0000,-28.0000,7469.0000,0.8584,0.3222,-0.3425,0.2047,126.1800,-59.7600,-67.0000,13.0600,-4.9000,-6.8600,0.0000,0.0000,-0.0000,1355.0000,1024.0000,1500.0000,2000.0000
241672.1320,2.0000,2000.0000,1168.0000,2000.0000,-82.0000,-142.0000,-37.0000,1724.0000,-312.0000,8159.0000,0.8559,0.3175,-0.3620,0.1887,126.4500,-59.8700,-67.1400,12.8600,-4.5100,-7.1700,0.0000,0.0000,-0.0000,1355.0000,1024.0000,1500.0000,2000.0000
241688.8260,2.0000,1993.0000,1892.0000,1728.0000,-69.0000,-126.0000,-34.0000,1753.0000,-430.0000,8769.0000,0.8529,0.3138,-0.3792,0.1743,126.4500,-59.8700,-67.1400,12.8600,-4.5100,-7.1700,0.0000,0.0000,-0.0000,1189.0000,1585.0000,1500.0000,1994.0000
241705.8540,2.0000,1993.0000,1894.0000,1728.0000,-64.0000,-104.0000,-29.0000,1845.0000,-658.0000,9148.0000,0.8501,0.3100,-0.3938,0.1614,126.7100,-59.9700,-67.2800,12.6100,-4.0600,-7.5000,0.0000,0.0000,-0.0000,1189.0000,1585.0000,1500.0000,1994.0000
241722.9010,2.0000,1993.0000,1894.0000,1728.0000,-67.0000,-70.0000,-24.0000,1827.0000,-729.0000,8677.0000,0.8484,0.3058,-0.4050,0.1505,127.0000,-60.0600,-67.4300,12.3600,-3.5200,-7.8300,0.0000,0.0000,-0.0000,1189.0000,1585.0000,1500.0000,1994.0000
241739.8530,2.0000,1993.0000,1894.0000,1728.0000,-79.0000,-28.0000,-16.0000,1759.0000,-836.0000,8458.0000,0.8491,0.2992,-0.4117,0.1417,127.2700,-60.1400,-67.5800,12.1300,-2.9900,-8.1400,0.0000,0.0000,-0.0000,1189.0000,1585.0000,1500.0000,1994.0000
241756.5490,2.0000,1993.0000,1894.0000,1728.0000,-109.0000,16.0000,-7.0000,1554.0000,-533.0000,7621.0000,0.8529,0.2886,-0.4136,0.1347,127.5400,-60.2100,-67.7400,11.9000,-2.5300,-8.4200,0.0000,0.0000,-0.0000,1189.0000,1585.0000,1500.0000,1994.0000
241773.6000,2.0000,1999.0000,1821.0000,1723.0000,-147.0000,67.0000,3.0000,1574.0000,-487.0000,7051.0000,0.8608,0.2717,-0.4106,0.1287,127.7900,-60.2700,-67.9000,11.6900,-2.1700,-8.6900,0.0000,0.0000,-0.0000,1228.0000,1551.0000,1500.0000,2000.0000
241790.6220,2.0000,2000.0000,1821.0000,1723.0000,-180.0000,113.0000,10.0000,1466.0000,-335.0000,5777.0000,0.8725,0.2488,-0.4020,0.1237,127.7900,-60.2700,-67.9000,11.6900,-2.1700,-8.6900,0.0000,0.0000,-0.0000,1228.0000,1551.0000,1500.0000,2000.0000
241807.1670,2.0000,2000.0000,1821.0000,1723.0000,-205.0000,146.0000,16.0000,1431.0000,-113.0000,4119.0000,0.8863,0.2213,-0.3890,0.1191,128.0300,-60.3200,-68.0700,11.5400,-1.9200,-8.9200,0.0000,0.0000,-0.0000,1228.0000,1551.0000,1500.0000,2000.0000
241824.2310,2.0000,2000.0000,1821.0000,1723.0000,-236.0000,165.0000,18.0000,1349.0000,41.0000,2231.0000,0.9017,0.1882,-0.3721,0.1139,128.2900,-60.3600,-68.2500,11.4600,-1.7200,-9.0900,0.0000,0.0000,-0.0000,1228.0000,1551.0000,1500.0000,2000.0000
241841.2380,2.0000,2000.0000,1821.0000,1723.0000,-259.0000,177.0000,21.0000,1442.0000,68.0000,638.0000,0.9168,0.1509,-0.3536,0.1077,128.5600,-60.4100,-68.4300,11.5000,-1.6600,-9.1400,0.0000,0.0000,-0.0000,1228.0000,1551.0000,1500.0000,2000.0000
241858.5220,2.0000,2000.0000,1821.0000,1723.0000,-278.0000,179.0000,20.0000,1405.0000,268.0000,-810.0000,0.9308,0.1099,-0.3337,0.1007,128.8200,-60.4500,-68.6100,11.6600,-1.6800,-9.0900,0.0000,0.0000,-0.0000,1228.0000,1551.0000,1500.0000,2000.0000
241875.0780,2.0000,2000.0000,1821.0000,1723.0000,-292.0000,177.0000,17.0000,1567.0000,16.0000,-1380.0000,0.9426,0.0678,-0.3137,0.0921,129.0700,-60.5000,-68.7800,11.8900,-1.7600,-8.9600,0.0000,0.0000,-0.0000,1228.0000,1551.0000,1500.0000,2000.0000
241891.8210,2.0000,2000.0000,1060.0000,1000.0000,-295.0000,168.0000,12.0000,1350.0000,53.0000,-2381.0000,0.9520,0.0242,-0.2937,0.0823,129.3300,-60.5400,-68.9600,12.1500,-1.8200,-8.7500,0.0000,0.0000,-0.0000,1989.0000,1550.0000,1500.0000,2000.0000
241908.9040,2.0000,2000.0000,1060.0000,1000.0000,-279.0000,163.0000,8.0000,1377.0000,417.0000,-3338.0000,0.9592,-0.0195,-0.2730,0.0717,129.3300,-60.5400,-68.9600,12.1500,-1.8200,-8.7500,0.0000,0.0000,-0.0000,1989.0000,1550.0000,1500.0000,2000.0000
241925.7370,2.0000,2000.0000,1060.0000,1000.0000,-231.0000,142.0000,-1.0000,1621.0000,518.0000,-3667.0000,0.9636,-0.0574,-0.2539,0.0615,129.6200,-60.5800,-69.1500,12.3700,-1.7700,-8.4700,0.0000,0.0000,-0.0000,1989.0000,1550.0000,1500.0000,2000.0000
241942.4630,2.0000,2000.0000,1060.0000,1000.0000,-155.0000,121.0000,-16.0000,1715.0000,262.0000,-3598.0000,0.9663,-0.0855,-0.2372,0.0522,129.9100,-60.6200,-69.3400,12.6100,-1.6900,-8.1600,0.0000,0.0000,-0.0000,1989.0000,1550.0000,1500.0000,2000.0000
241959.3810,2.0000,2000.0000,1060.0000,1000.0000,-51.0000,109.0000,-32.0000,1285.0000,326.0000,-3717.0000,0.9689,-0.1003,-0.2220,0.0438,130.1900,-60.6600,-69.5300,12.8100,-1.5700,-7.8400,0.0000,0.0000,-0.0000,1989.0000,1550.0000,1500.0000,2000.0000
241976.1360,2.0000,2000.0000,1000.0000,1077.0000,82.0000,93.0000,-48.0000,1141.0000,23.0000,-3478.0000,0.9726,-0.0970,-0.2081,0.0369,130.4600,-60.6900,-69.7100,12.9600,-1.4300,-7.4700,0.0000,0.0000,-0.0000,1968.0000,1432.0000,1500.0000,2000.0000
241992.9520,2.0000,2000.0000,1000.0000,1100.0000,196.0000,93.0000,-65.0000,1110.0000,57.0000,-3325.0000,0.9775,-0.0755,-0.1946,0.0316,130.4600,-60.6900,-69.7100,12.9600,-1.4300,-7.4700,0.0000,0.0000,-0.0000,1968.0000,1432.0000,1500.0000,2000.0000
242009.7470,2.0000,2000.0000,1000.0000,1100.0000,283.0000,79.0000,-77.0000,985.0000,188.0000,-3689.0000,0.9823,-0.0391,-0.1814,0.0270,130.7300,-60.7200,-69.8900,13.0600,-1.2900,-7.1100,0.0000,0.0000,-0.0000,1968.0000,1432.0000,1500.0000,2000.0000
242026.8670,2.0000,2000.0000,1000.0000,1100.0000,336.0000,66.0000,-86.0000,1156.0000,192.0000,-3841.0000,0.9852,0.0087,-0.1696,0.0225,131.0300,-60.7400,-70.0800,13.2100,-1.1800,-6.7200,0.0000,0.0000,-0.0000,1968.0000,1432.0000,1500.0000,2000.0000
242043.7970,2.0000,2000.0000,1000.0000,1100.0000,372.0000,42.0000,-90.0000,1245.0000,93.0000,-3702.0000,0.9849,0.0622,-0.1604,0.0177,131.3300,-60.7600,-70.2500,13.3700,-1.1000,-6.3100,0.0000,0.0000,-0.0000,1968.0000,1432.0000,1500.0000,2000.0000
242060.5720,2.0000,2000.0000,1000.0000,1100.0000,392.0000,19.0000,-89.0000,1372.0000,-405.0000,-2863.0000,0.9808,0.1193,-0.1539,0.0132,131.6200,-60.7800,-70.4300,13.5000,-1.0500,-5.9100,0.0000,0.0000,-0.0000,1968.0000,1432.0000,1500.0000,2000.0000
242077.2820,2.0000,1996.0000,2000.0000,1616.0000,398.0000,2.0000,-83.0000,1412.0000,-560.0000,-1831.0000,0.9725,0.1776,-0.1503,0.0096,131.9100,-60.7900,-70.6000,13.5900,-0.9600,-5.5800,0.0000,0.0000,-0.0000,1031.0000,1848.0000,1500.0000,1997.0000
242094.0530,2.0000,1996.0000,2000.0000,1622.0000,412.0000,-19.0000,-78.0000,1300.0000,-569.0000,-864.0000,0.9602,0.2364,-0.1486,0.0064,131.9100,-60.7900,-70.6000,13.5900,-0.9600,-5.5800,0.0000,0.0000,-0.0000,1031.0000,1848.0000,1500.0000,1997.0000
242110.8530,2.0000,1996.0000,2000.0000,1622.0000,418.0000,-25.0000,-68.0000,1232.0000,-585.0000,108.0000,0.9435,0.2961,-0.1490,0.0037,132.1800,-60.8000,-70.7700,13.6300,-0.8600,-5.3000,0.0000,0.0000,-0.0000,1031.0000,1848.0000,1500.0000,1997.0000
242127.5860,2.0000,1996.0000,2000.0000,1622.0000,397.0000,-28.0000,-56.0000,1473.0000,-860.0000,1327.0000,0.9235,0.3532,-0.1499,0.0022,132.5000,-60.8100,-70.9300,13.7500,-0.6900,-5.0800,0.0000,0.0000,-0.0000,1031.0000,1848.0000,1500.0000,1997.0000
242144.4510,2.0000,1996.0000,2000.0000,1622.0000,346.0000,-29.0000,-39.0000,1711.0000,-1068.0000,2424.0000,0.9020,0.4043,-0.1514,0.0017,132.8100,-60.8100,-71.0900,13.8500,-0.4200,-4.9100,0.0000,0.0000,-0.0000,1031.0000,1848.0000,1500.0000,1997.0000
242161.1370,2.0000,1996.0000,2000.0000,1622.0000,269.0000,-21.0000,-17.0000,1778.0000,-1099.0000,2922.0000,0.8823,0.4451,-0.1533,0.0027,133.1000,-60.8000,-71.2400,13.9300,-0.0700,-4.7900,0.0000,0.0000,-0.0000,1031.0000,1848.0000,1500.0000,1997.0000
242178.2030,2.0000,1999.0000,1994.0000,1734.0000,167.0000,-8.0000,8.0000,1926.0000,-1193.0000,3718.0000,0.8670,0.4736,-0.1547,0.0061,133.3900,-60.7900,-71.3800,13.9800,0.3100,-4.6600,0.0000,0.0000,-0.0000,1136.0000,1632.0000,1500.0000,2000.0000
242195.0690,2.0000,2000.0000,1994.0000,1734.0000,66.0000,13.0000,31.0000,1753.0000,-1228.0000,3994.0000,0.8589,0.4877,-0.1557,0.0113,133.3900,-60.7900,-71.3800,13.9800,0.3100,-4.6600,0.0000,0.0000,-0.0000,1136.0000,1632.0000,1500.0000,2000.0000
242211.5080,2.0000,2000.0000,1994.0000,1734.0000,-29.0000,38.0000,52.0000,1629.0000,-1168.0000,3908.0000,0.8583,0.4886,-0.1556,0.0185,133.6700,-60.7700,-71.5100,14.0200,0.7300,-4.5600,0.0000,0.0000,-0.0000,1136.0000,1632.0000,1500.0000,2000.0000
242228.2120,2.0000,2000.0000,1994.0000,1734.0000,-119.0000,68.0000,69.0000,1614.0000,-1030.0000,3288.0000,0.8645,0.4777,-0.1537,0.0280,133.9900,-60.7400,-71.6300,14.1500,1.1300,-4.4600,0.0000,0.0000,-0.0000,1136.0000,1632.0000,1500.0000,2000.0000
242244.9730,2.0000,2000.0000,1994.0000,1734.0000,-192.0000,85.0000,82.0000,1301.0000,-647.0000,2055.0000,0.8767,0.4554,-0.1501,0.0391,134.3000,-60.7000,-71.7400,14.2800,1.4400,-4.3500,0.0000,0.0000,-0.0000,1136.0000,1632.0000,1500.0000,2000.0000
242261.9210,2.0000,2000.0000,1994.0000,1734.0000,-245.0000,102.0000,90.0000,1150.0000,-337.0000,795.0000,0.8924,0.4242,-0.1450,0.0515,134.6100,-60.6700,-71.8500,14.4000,1.5900,-4.2300,0.0000,0.0000,-0.0000,1136.0000,1632.0000,1500.0000,2000.0000
242278.7140,2.0000,2000.0000,1215.0000,2000.0000,-289.0000,121.0000,93.0000,1194.0000,-241.0000,-97.0000,0.9098,0.3860,-0.1379,0.0645,134.9100,-60.6300,-71.9500,14.5100,1.5900,-4.0800,0.0000,0.0000,-0.0000,1302.0000,1017.0000,1500.0000,2000.0000
242295.6170,2.0000,2000.0000,1214.0000,2000.0000,-319.0000,130.0000,91.0000,1329.0000,43.0000,-935.0000,0.9278,0.3413,-0.1288,0.0777,134.9100,-60.6300,-71.9500,14.5100,1.5900,-4.0800,0.0000,0.0000,-0.0000,1302.0000,1017.0000,1500.0000,2000.0000
242312.4710,2.0000,2000.0000,1214.0000,2000.0000,-334.0000,120.0000,82.0000,1406.0000,463.0000,-1967.0000,0.9444,0.2929,-0.1195,0.0893,135.2000,-60.5900,-72.0500,14.6300,1.5000,-3.9100,0.0000,0.0000,-0.0000,1302.0000,1017.0000,1500.0000,2000.0000
242329.4440,2.0000,2000.0000,1214.0000,2000.0000,-340.0000,98.0000,73.0000,1099.0000,761.0000,-3187.0000,0.9587,0.2423,-0.1119,0.0985,135.5300,-60.5500,-72.1600,14.8200,1.4200,-3.7000,0.0000,0.0000,-0.0000,1302.0000,1017.0000,1500.0000,2000.0000
242346.2600,2.0000,2000.0000,1214.0000,2000.0000,-330.0000,64.0000,61.0000,1067.0000,1064.0000,-3705.0000,0.9698,0.1922,-0.1074,0.1050,135.8600,-60.5100,-72.2600,14.9700,1.2700,-3.4200,0.0000,0.0000,-0.0000,1302.0000,1017.0000,1500.0000,2000.0000
242362.9180,2.0000,2000.0000,1214.0000,2000.0000,-303.0000,19.0000,45.0000,1111.0000,939.0000,-3123.0000,0.9774,0.1460,-0.1082,0.1081,136.1800,-60.4800,-72.3700,15.1000,1.1300,-3.0700,0.0000,0.0000,-0.0000,1302.0000,1017.0000,1500.0000,2000.0000
242379.5990,2.0000,2000.0000,1000.0000,1464.0000,-264.0000,-37.0000,20.0000,1088.0000,1026.0000,-2104.0000,0.9820,0.1050,-0.1146,0.1073,136.1800,-60.4800,-72.3700,15.1000,1.1300,-3.0700,0.0000,0.0000,-0.0000,1973.0000,1065.0000,1500.0000,2000.0000
242396.3150,2.0000,2000.0000,1000.0000,1463.0000,-230.0000,-78.0000,-5.0000,1233.0000,850.0000,-352.0000,0.9841,0.0705,-0.1271,0.1026,136.4900,-60.4500,-72.4700,15.2000,1.0300,-2.7500,0.0000,0.0000,-0.0000,1973.0000,1065.0000,1500.0000,2000.0000
242413.3570,2.0000,2000.0000,1000.0000,1463.0000,-195.0000,-111.0000,-30.0000,1251.0000,708.0000,1371.0000,0.9842,0.0410,-0.1441,0.0943,136.8600,-60.4000,-72.5700,15.3600,1.1000,-2.5500,0.0000,0.0000,-0.0000,1973.0000,1065.0000,1500.0000,2000.0000
242430.1770,2.0000,2000.0000,1000.0000,1463.0000,-151.0000,-137.0000,-59.0000,1299.0000,409.0000,2980.0000,0.9827,0.0185,-0.1646,0.0829,137.2100,-60.3600,-72.6700,15.4500,1.2400,-2.5200,0.0000,0.0000,-0.0000,1973.0000,1065.0000,1500.0000,2000.0000
242446.9090,2.0000,2000.0000,1000.0000,1463.0000,-94.0000,-142.0000,-87.0000,1519.0000,217.0000,4913.0000,0.9802,0.0042,-0.1860,0.0685,137.5500,-60.3100,-72.7700,15.4700,1.4200,-2.6400,0.0000,0.0000,-0.0000,1973.0000,1065.0000,1500.0000,2000.0000
242463.9280,2.0000,2000.0000,1000.0000,1463.0000,-38.0000,-130.0000,-111.0000,1635.0000,281.0000,5967.0000,0.9771,-0.0014,-0.2064,0.0516,137.8700,-60.2600,-72.8800,15.4000,1.6100,-2.9300,0.0000,0.0000,-0.0000,1973.0000,1065.0000,1500.0000,2000.0000
242480.6740,2.0000,2000.0000,1395.0000,2000.0000,11.0000,-115.0000,-126.0000,1829.0000,-29.0000,6722.0000,0.9741,0.0012,-0.2237,0.0337,137.8700,-60.2600,-72.8800,15.4000,1.6100,-2.9300,0.0000,0.0000,-0.0000,1127.0000,1023.0000,1500.0000,2000.0000
242497.1590,2.0000,2000.0000,1396.0000,2000.0000,48.0000,-98.0000,-135.0000,1902.0000,-389.0000,7062.0000,0.9709,0.0100,-0.2387,0.0159,138.1900,-60.2100,-72.9800,15.2900,1.7700,-3.3100,0.0000,0.0000,-0.0000,1127.0000,1023.0000,1500.0000,2000.0000
242513.9660,2.0000,2000.0000,1396.0000,2000.0000,62.0000,-90.0000,-135.0000,1877.0000,-717.0000,7036.0000,0.9676,0.0230,-0.2516,-0.0019,138.5500,-60.1500,-73.0800,15.3000,1.9100,-3.7400,0.0000,0.0000,-0.0000,1127.0000,1023.0000,1500.0000,2000.0000
242530.5590,2.0000,2000.0000,1396.0000,2000.0000,34.0000,-83.0000,-127.0000,1931.0000,-881.0000,6896.0000,0.9640,0.0348,-0.2630,-0.0191,138.9000,-60.0900,-73.1800,15.2600,2.0900,-4.1700,0.0000,0.0000,-0.0000,1127.0000,1023.0000,1500.0000,2000.0000
242547.5630,2.0000,2000.0000,1396.0000,2000.0000,2.0000,-80.0000,-113.0000,1904.0000,-967.0000,6753.0000,0.9602,0.0418,-0.2739,-0.0363,139.2200,-60.0400,-73.2900,15.1900,2.2800,-4.5800,0.0000,0.0000,-0.0000,1127.0000,1023.0000,1500.0000,2000.0000
242564.4610,2.0000,2000.0000,1396.0000,2000.0000,-19.0000,-76.0000,-96.0000,1869.0000,-1209.0000,6540.0000,0.9564,0.0440,-0.2840,-0.0521,139.5400,-59.9800,-73.3900,15.0900,2.4700,-4.9600,0.0000,0.0000,-0.0000,1127.0000,1023.0000,1500.0000,2000.0000
242581.4750,2.0000,2000.0000,1333.0000,2000.0000,-35.0000,-73.0000,-80.0000,1654.0000,-1199.0000,6451.0000,0.9526,0.0432,-0.2937,-0.0663,139.5400,-59.9800,-73.3900,15.0900,2.4700,-4.9600,0.0000,0.0000,-0.0000,1200.0000,1033.0000,1500.0000,2000.0000
242598.1410,2.0000,2000.0000,1333.0000,2000.0000,-37.0000,-65.0000,-63.0000,1660.0000,-1293.0000,6241.0000,0.9492,0.0404,-0.3023,-0.0780,139.8400,-59.9200,-73.5000,14.9600,2.6600,-5.3200,0.0000,0.0000,-0.0000,1200.0000,1033.0000,1500.0000,2000.0000
242615.2720,2.0000,2000.0000,1333.0000,2000.0000,-32.0000,-63.0000,-48.0000,1689.0000,-1278.0000,5923.0000,0.9458,0.0372,-0.3106,-0.0875,140.1800,-59.8500,-73.6100,14.8200,2.8000,-5.6500,0.0000,0.0000,-0.0000,1200.0000,1033.0000,1500.0000,2000.0000
242631.7580,2.0000,2000.0000,1333.0000,2000.0000,-29.0000,-61.0000,-34.0000,1708.0000,-1306.0000,5705.0000,0.9426,0.0342,-0.3184,-0.0946,140.5100,-59.7800,-73.7300,14.6900,2.9200,-5.9500,0.0000,0.0000,-0.0000,1200.0000,1033.0000,1500.0000,2000.0000
242648.6860,2.0000,2000.0000,1333.0000,2000.0000,-25.0000,-63.0000,-20.0000,1625.0000,-1218.0000,5427.0000,0.9394,0.0310,-0.3264,-0.0997,140.8300,-59.7100,-73.8500,14.5500,3.0300,-6.2400,0.0000,0.0000,-0.0000,1200.0000,1033.0000,1500.0000,2000.0000
242665.6230,2.0000,2000.0000,1333.0000,2000.0000,-26.0000,-65.0000,-8.0000,1527.0000,-1119.0000,5220.0000,0.9363,0.0271,-0.3348,-0.1028,141.1300,-59.6400,-73.9700,14.4200,3.1200,-6.4900,0.0000,0.0000,-0.0000,1200.0000,1033.0000,1500.0000,2000.0000
242682.6010,2.0000,2000.0000,1343.0000,2000.0000,-22.0000,-68.0000,4.0000,1464.0000,-901.0000,5052.0000,0.9331,0.0229,-0.3435,-0.1042,141.1300,-59.6400,-73.9700,14.4200,3.1200,-6.4900,0.0000,0.0000,-0.0000,1192.0000,1035.0000,1500.0000,2000.0000
242699.3890,2.0000,2000.0000,1343.0000,2000.0000,-19.0000,-71.0000,14.0000,1549.0000,-997.0000,5104.0000,0.9297,0.0186,-0.3528,-0.1039,141.4200,-59.5800,-74.1000,14.2800,3.1700,-6.7200,0.0000,0.0000,-0.0000,1192.0000,1035.0000,1500.0000,2000.0000
242716.0090,2.0000,2000.0000,1343.0000,2000.0000,-17.0000,-74.0000,24.0000,1601.0000,-1095.0000,5231.0000,0.9263,0.0143,-0.3623,-0.1022,141.7500,-59.5000,-74.2300,14.1300,3.2400,-6.9500,0.0000,0.0000,-0.0000,1192.0000,1035.0000,1500.0000,2000.0000
242732.6010,2.0000,2000.0000,1343.0000,2000.0000,-25.0000,-73.0000,33.0000,1565.0000,-1103.0000,5532.0000,0.9229,0.0090,-0.3719,-0.0994,142.0600,-59.4300,-74.3600,13.9700,3.2900,-7.2000,0.0000,0.0000,-0.0000,1192.0000,1035.0000,1500.0000,2000.0000
242749.2980,2.0000,2000.0000,1343.0000,2000.0000,-39.0000,-71.0000,40.0000,1504.0000,-872.0000,5555.0000,0.9195,0.0018,-0.3811,-0.0961,142.3600,-59.3600,-74.5000,13.7800,3.3400,-7.4600,0.0000,0.0000,-0.0000,1192.0000,1035.0000,1500.0000,2000.0000
242766.0590,2.0000,2000.0000,1350.0000,2000.0000,-48.0000,-67.0000,45.0000,1456.0000,-793.0000,5510.0000,0.9162,-0.0073,-0.3898,-0.0925,142.6500,-59.2900,-74.6400,13.5800,3.3400,-7.7100,0.0000,0.0000,-0.0000,1150.0000,1025.0000,1500.0000,2000.0000
242782.5930,2.0000,2000.0000,1375.0000,2000.0000,-56.0000,-61.0000,49.0000,1458.0000,-927.0000,5525.0000,0.9132,-0.0176,-0.3974,-0.0889,142.6500,-59.2900,-74.6400,13.5800,3.3400,-7.7100,0.0000,0.0000,-0.0000,1150.0000,1025.0000,1500.0000,2000.0000
242799.4260,2.0000,2000.0000,1375.0000,2000.0000,-63.0000,-53.0000,51.0000,1418.0000,-729.0000,5048.0000,0.9103,-0.0292,-0.4040,-0.0854,142.9300,-59.2200,-74.7900,13.3600,3.3400,-7.9600,0.0000,0.0000,-0.0000,1150.0000,1025.0000,1500.0000,2000.0000
242816.4020,2.0000,2000.0000,1375.0000,2000.0000,-74.0000,-50.0000,49.0000,1533.0000,-721.0000,5061.0000,0.9075,-0.0424,-0.4097,-0.0825,143.2300,-59.1500,-74.9400,13.1300,3.3500,-8.1800,0.0000,0.0000,-0.0000,1150.0000,1025.0000,1500.0000,2000.0000
242833.2710,2.0000,2000.0000,1375.0000,2000.0000,-83.0000,-47.0000,46.0000,1378.0000,-409.0000,4529.0000,0.9046,-0.0563,-0.4148,-0.0805,143.5200,-59.0700,-75.0900,12.9100,3.3300,-8.4000,0.0000,0.0000,-0.0000,1150.0000,1025.0000,1500.0000,2000.0000
242850.0810,2.0000,2000.0000,1375.0000,2000.0000,-90.0000,-46.0000,43.0000,1319.0000,-195.0000,3878.0000,0.9015,-0.0710,-0.4195,-0.0795,143.8000,-59.0000,-75.2500,12.7400,3.2800,-8.5700,0.0000,0.0000,-0.0000,1150.0000,1025.0000,1500.0000,2000.0000
242866.7460,2.0000,2000.0000,1375.0000,2000.0000,-93.0000,-56.0000,41.0000,1445.0000,-303.0000,3875.0000,0.8979,-0.0860,-0.4245,-0.0790,144.0700,-58.9400,-75.4100,12.6100,3.2000,-8.7100,0.0000,0.0000,-0.0000,1150.0000,1025.0000,1500.0000,2000.0000
242883.3900,2.0000,1998.0000,1382.0000,2000.0000,-100.0000,-62.0000,36.0000,1524.0000,-289.0000,4020.0000,0.8934,-0.1016,-0.4304,-0.0791,144.0700,-58.9400,-75.4100,12.6100,3.2000,-8.7100,0.0000,0.0000,-0.0000,1184.0000,1074.0000,1500.0000,1998.0000
242900.1390,2.0000,1997.0000,1390.0000,2000.0000,-109.0000,-72.0000,33.0000,1546.0000,-194.0000,4246.0000,0.8880,-0.1182,-0.4371,-0.0804,144.3300,-58.8700,-75.5800,12.4600,3.1200,-8.8600,0.0000,0.0000,-0.0000,1184.0000,1074.0000,1500.0000,1998.0000
242916.8930,2.0000,1997.0000,1390.0000,2000.0000,-113.0000,-80.0000,26.0000,1533.0000,-92.0000,4401.0000,0.8814,-0.1356,-0.4449,-0.0826,144.6200,-58.8000,-75.7500,12.2500,3.0300,-9.0200,0.0000,0.0000,-0.0000,1184.0000,1074.0000,1500.0000,1998.0000
242933.9480,2.0000,1997.0000,1390.0000,2000.0000,-112.0000,-91.0000,21.0000,1561.0000,-109.0000,4268.0000,0.8735,-0.1530,-0.4543,-0.0853,144.9000,-58.7400,-75.9200,12.0400,2.9100,-9.1800,0.0000,0.0000,-0.0000,1184.0000,1074.0000,1500.0000,1998.0000
242950.6900,2.0000,1997.0000,1390.0000,2000.0000,-114.0000,-95.0000,16.0000,1624.0000,17.0000,4740.0000,0.8648,-0.1699,-0.4642,-0.0885,145.1600,-58.6800,-76.1000,11.8300,2.7800,-9.3300,0.0000,0.0000,-0.0000,1184.0000,1074.0000,1500.0000,1998.0000
242967.2870,2.0000,1997.0000,1390.0000,2000.0000,-113.0000,-102.0000,12.0000,1719.0000,-239.0000,4928.0000,0.8553,-0.1862,-0.4746,-0.0922,145.1600,-58.6800,-76.1000,11.8300,2.7800,-9.3300,0.0000,0.0000,-0.0000,1184.0000,1074.0000,1500.0000,1998.0000
242984.0730,2.0000,2000.0000,1362.0000,1856.0000,-110.0000,-103.0000,9.0000,1760.0000,-261.0000,5172.0000,0.8450,-0.2023,-0.4855,-0.0961,145.4100,-58.6200,-76.2800,11.5800,2.6200,-9.5000,0.0000,0.0000,-0.0000,1390.0000,1252.0000,1500.0000,2000.0000
243000.6720,2.0000,2000.0000,1362.0000,1856.0000,-109.0000,-105.0000,8.0000,1811.0000,-460.0000,5448.0000,0.8343,-0.2178,-0.4965,-0.1000,145.6500,-58.5700,-76.4600,11.3000,2.4500,-9.6700,0.0000,0.0000,-0.0000,1390.0000,1252.0000,1500.0000,2000.0000
243017.5060,2.0000,2000.0000,1362.0000,1856.0000,-101.0000,-107.0000,7.0000,1767.0000,-332.0000,5572.0000,0.8231,-0.2330,-0.5075,-0.1037,145.9100,-58.5200,-76.6500,10.9300,2.2600,-9.8400,0.0000,0.0000,-0.0000,1390.0000,1252.0000,1500.0000,2000.0000
243034.2970,2.0000,2000.0000,1362.0000,1856.0000,-92.0000,-102.0000,7.0000,1780.0000,-294.0000,5682.0000,0.8118,-0.2470,-0.5183,-0.1067,146.1500,-58.4700,-76.8400,10.5400,2.0500,-9.9900,0.0000,0.0000,-0.0000,1390.0000,1252.0000,1500.0000,2000.0000
243051.0310,2.0000,2000.0000,1362.0000,1856.0000,-87.0000,-101.0000,9.0000,1785.0000,-361.0000,5691.0000,0.8008,-0.2599,-0.5284,-0.1090,146.3800,-58.4200,-77.0400,10.1700,1.8200,-10.1200,0.0000,0.0000,-0.0000,1390.0000,1252.0000,1500.0000,2000.0000
243068.0290,2.0000,2000.0000,1362.0000,1856.0000,-79.0000,-91.0000,13.0000,1873.0000,-508.0000,6031.0000,0.7901,-0.2722,-0.5379,-0.1108,146.3800,-58.4200,-77.0400,10.1700,1.8200,-10.1200,0.0000,0.0000,-0.0000,1390.0000,1252.0000,1500.0000,2000.0000
243084.9200,2.0000,2000.0000,1385.0000,1543.0000,-75.0000,-87.0000,15.0000,1842.0000,-478.0000,5701.0000,0.7801,-0.2839,-0.5461,-0.1121,146.5900,-58.3900,-77.2300,9.7800,1.5900,-10.2400,0.0000,0.0000,-0.0000,1538.0000,1420.0000,1500.0000,2000.0000
243101.5810,2.0000,2000.0000,1385.0000,1543.0000,-72.0000,-77.0000,19.0000,1794.0000,-433.0000,5150.0000,0.7706,-0.2951,-0.5534,-0.1130,146.7900,-58.3600,-77.4300,9.4100,1.3800,-10.3500,0.0000,0.0000,-0.0000,1538.0000,1420.0000,1500.0000,2000.0000
243118.3560,2.0000,2000.0000,1385.0000,1543.0000,-59.0000,-70.0000,19.0000,1829.0000,-493.0000,4889.0000,0.7619,-0.3054,-0.5598,-0.1133,147.0100,-58.3200,-77.6300,9.0900,1.2000,-10.4300,0.0000,0.0000,-0.0000,1538.0000,1420.0000,1500.0000,2000.0000
243135.3510,2.0000,2000.0000,1385.0000,1543.0000,-51.0000,-62.0000,20.0000,1813.0000,-325.0000,4753.0000,0.7541,-0.3147,-0.5653,-0.1130,147.2100,-58.2900,-77.8300,8.8000,1.0500,-10.4900,0.0000,0.0000,-0.0000,1538.0000,1420.0000,1500.0000,2000.0000
