t_ms,msp,motor,servo0,servo1,gyro_p,gyro_q,gyro_r,acc_x,acc_y,acc_z,qw,qx,qy,qz,pos_n,pos_e,pos_d,vel_n,vel_e,vel_d,tgtpos_n,tgtpos_e,tgtpos_d,rcData0,rcData1,rcData2,rcData3
589591.9530,3.0000,1442.0000,1459.0000,1509.0000,12.0000,4.0000,-19.0000,-413.0000,-146.0000,1488.0000,0.1265,-0.2012,0.0237,0.9711,128.7500,2.6000,-56.1200,-18.0500,0.5900,7.1300,0.0000,0.0000,-0.0000,1500.0000,1498.0000,1500.0000,1472.0000
589608.6020,3.0000,1442.0000,1459.0000,1509.0000,13.0000,4.0000,-14.0000,-396.0000,-258.0000,1391.0000,0.1289,-0.2013,0.0258,0.9707,128.7500,2.6000,-56.1200,-18.0500,0.5900,7.1300,0.0000,0.0000,-0.0000,1500.0000,1500.0000,1500.0000,1472.0000
589625.1480,3.0000,1443.0000,1462.0000,1512.0000,18.0000,4.0000,-12.0000,-353.0000,-398.0000,1377.0000,0.1310,-0.2014,0.0282,0.9703,128.3900,2.6300,-55.9700,-18.0500,0.5800,7.1800,0.0000,0.0000,-0.0000,1500.0000,1500.0000,1500.0000,1473.0000
589641.7920,3.0000,1443.0000,1465.0000,1513.0000,22.0000,2.0000,-8.0000,-310.0000,-344.0000,1392.0000,0.1327,-0.2020,0.0310,0.9699,128.0300,2.6600,-55.8200,-18.0400,0.5600,7.2400,0.0000,0.0000,-0.0000,1500.0000,1498.0000,1500.0000,1473.0000
589658.5380,3.0000,1443.0000,1466.0000,1514.0000,23.0000,3.0000,-7.0000,-316.0000,-250.0000,1512.0000,0.1341,-0.2022,0.0344,0.9695,127.6800,2.6800,-55.6800,-18.0300,0.5400,7.2900,0.0000,0.0000,-0.0000,1500.0000,1498.0000,1500.0000,1473.0000
589675.4020,3.0000,1443.0000,1465.0000,1513.0000,21.0000,1.0000,-5.0000,-363.0000,-268.0000,1648.0000,0.1351,-0.2019,0.0379,0.9693,127.3400,2.7100,-55.5300,-18.0200,0.5300,7.3300,0.0000,0.0000,-0.0000,1500.0000,1500.0000,1500.0000,1473.0000
589692.1160,3.0000,1443.0000,1465.0000,1511.0000,19.0000,1.0000,-1.0000,-275.0000,-246.0000,1706.0000,0.1358,-0.2014,0.0409,0.9692,127.0100,2.7400,-55.3800,-18.0100,0.5100,7.3700,0.0000,0.0000,-0.0000,1500.0000,1498.0000,1500.0000,1473.0000
589708.7980,3.0000,1443.0000,1461.0000,1509.0000,15.0000,3.0000,2.0000,-324.0000,-205.0000,1696.0000,0.1360,-0.2011,0.0433,0.9691,127.0100,2.7400,-55.3800,-18.0100,0.5100,7.3700,0.0000,0.0000,-0.0000,1500.0000,1500.0000,1500.0000,1473.0000
589725.6910,3.0000,1443.0000,1460.0000,1510.0000,13.0000,3.0000,3.0000,-393.0000,-241.0000,1666.0000,0.1358,-0.2014,0.0454,0.9690,126.6800,2.7600,-55.2300,-18.0000,0.4900,7.4000,0.0000,0.0000,-0.0000,1500.0000,1498.0000,1500.0000,1473.0000
589742.2860,3.0000,1443.0000,1460.0000,1508.0000,11.0000,1.0000,5.0000,-459.0000,-197.0000,1613.0000,0.1354,-0.2015,0.0471,0.9689,126.3600,2.7900,-55.0800,-17.9700,0.4800,7.4300,0.0000,0.0000,-0.0000,1500.0000,1498.0000,1500.0000,1473.0000
589758.8510,3.0000,1443.0000,1460.0000,1506.0000,9.0000,0.0000,7.0000,-503.0000,-101.0000,1686.0000,0.1347,-0.2014,0.0485,0.9690,126.0500,2.8100,-54.9400,-17.9200,0.4700,7.4700,0.0000,0.0000,-0.0000,1500.0000,1500.0000,1500.0000,1473.0000
589775.5650,3.0000,1443.0000,1460.0000,1504.0000,6.0000,-1.0000,7.0000,-465.0000,-125.0000,1777.0000,0.1338,-0.2010,0.0495,0.9692,125.7500,2.8300,-54.7900,-17.8800,0.4600,7.4900,0.0000,0.0000,-0.0000,1500.0000,1498.0000,1500.0000,1473.0000
589792.2260,3.0000,1441.0000,1455.0000,1501.0000,0.0000,0.0000,7.0000,-391.0000,-123.0000,1779.0000,0.1327,-0.2007,0.0494,0.9694,125.7500,2.8300,-54.7900,-17.8800,0.4600,7.4900,0.0000,0.0000,-0.0000,1500.0000,1498.0000,1500.0000,1471.0000
589809.1640,3.0000,1443.0000,1453.0000,1501.0000,-3.0000,-1.0000,7.0000,-290.0000,-172.0000,1810.0000,0.1317,-0.2005,0.0487,0.9696,125.4600,2.8600,-54.6400,-17.8300,0.4600,7.5100,0.0000,0.0000,-0.0000,1500.0000,1497.0000,1500.0000,1473.0000
589825.7730,3.0000,1443.0000,1455.0000,1499.0000,-4.0000,-2.0000,6.0000,-363.0000,-178.0000,1894.0000,0.1308,-0.2004,0.0479,0.9698,125.1700,2.8800,-54.4900,-17.7900,0.4400,7.5400,0.0000,0.0000,-0.0000,1500.0000,1500.0000,1500.0000,1473.0000
589842.4720,3.0000,1443.0000,1457.0000,1499.0000,-3.0000,-4.0000,4.0000,-394.0000,-227.0000,1929.0000,0.1301,-0.2001,0.0469,0.9700,124.8900,2.9000,-54.3400,-17.7500,0.4300,7.5500,0.0000,0.0000,-0.0000,1500.0000,1500.0000,1500.0000,1473.0000
589859.0030,3.0000,1443.0000,1459.0000,1499.0000,-1.0000,-5.0000,1.0000,-457.0000,-206.0000,1739.0000,0.1298,-0.1994,0.0460,0.9702,124.6200,2.9200,-54.1900,-17.7000,0.4100,7.5600,0.0000,0.0000,-0.0000,1500.0000,1500.0000,1500.0000,1473.0000
589875.5500,3.0000,1443.0000,1462.0000,1502.0000,4.0000,-5.0000,-2.0000,-404.0000,-65.0000,1528.0000,0.1298,-0.1990,0.0462,0.9703,124.3500,2.9400,-54.0500,-17.6300,0.4000,7.5800,0.0000,0.0000,-0.0000,1500.0000,1498.0000,1500.0000,1473.0000
589892.2560,3.0000,1443.0000,1462.0000,1504.0000,6.0000,-4.0000,-5.0000,-419.0000,-133.0000,1614.0000,0.1304,-0.1989,0.0469,0.9702,124.3500,2.9400,-54.0500,-17.6300,0.4000,7.5800,0.0000,0.0000,-0.0000,1500.0000,1498.0000,1500.0000,1473.0000
589908.8430,3.0000,1442.0000,1461.0000,1503.0000,5.0000,-4.0000,-9.0000,-481.0000,-1.0000,1682.0000,0.1315,-0.1987,0.0475,0.9700,124.0900,2.9600,-53.9000,-17.5700,0.4000,7.6200,0.0000,0.0000,-0.0000,1500.0000,1498.0000,1500.0000,1472.0000
589925.6070,3.0000,1442.0000,1461.0000,1501.0000,3.0000,-6.0000,-11.0000,-563.0000,19.0000,1890.0000,0.1330,-0.1984,0.0477,0.9699,123.8400,2.9700,-53.7500,-17.5000,0.4100,7.6400,0.0000,0.0000,-0.0000,1500.0000,1500.0000,1500.0000,1473.0000
589942.3050,3.0000,1443.0000,1460.0000,1500.0000,2.0000,-5.0000,-12.0000,-456.0000,-116.0000,2164.0000,0.1346,-0.1978,0.0477,0.9698,123.5900,2.9900,-53.6000,-17.4300,0.4100,7.6500,0.0000,0.0000,-0.0000,1500.0000,1498.0000,1500.0000,1473.0000
589958.9510,3.0000,1443.0000,1458.0000,1500.0000,0.0000,-4.0000,-14.0000,-390.0000,-202.0000,2304.0000,0.1364,-0.1972,0.0475,0.9697,123.3500,3.0100,-53.4600,-17.3700,0.3900,7.6300,0.0000,0.0000,-0.0000,1500.0000,1500.0000,1500.0000,1473.0000
589975.6580,3.0000,1443.0000,1457.0000,1499.0000,-2.0000,-3.0000,-14.0000,-448.0000,-171.0000,2108.0000,0.1382,-0.1968,0.0471,0.9695,123.1200,3.0300,-53.3100,-17.3100,0.3700,7.6000,0.0000,0.0000,-0.0000,1500.0000,1500.0000,1500.0000,1473.0000
589992.3090,3.0000,1443.0000,1459.0000,1501.0000,1.0000,-3.0000,-12.0000,-534.0000,-132.0000,1915.0000,0.1398,-0.1965,0.0469,0.9693,123.1200,3.0300,-53.3100,-17.3100,0.3700,7.6000,0.0000,0.0000,-0.0000,1500.0000,1498.0000,1500.0000,1473.0000
590008.9930,3.0000,1443.0000,1460.0000,1502.0000,2.0000,-3.0000,-11.0000,-482.0000,-260.0000,1746.0000,0.1414,-0.1962,0.0469,0.9692,122.8900,3.0400,-53.1700,-17.2400,0.3600,7.5900,0.0000,0.0000,-0.0000,1500.0000,1498.0000,1500.0000,1473.0000
590025.5120,3.0000,1443.0000,1460.0000,1502.0000,3.0000,-3.0000,-10.0000,-381.0000,-383.0000,1648.0000,0.1429,-0.1961,0.0471,0.9690,122.6700,3.0600,-53.0300,-17.1500,0.3500,7.6100,0.0000,0.0000,-0.0000,1500.0000,1498.0000,1500.0000,1473.0000
590042.2740,3.0000,1443.0000,1461.0000,1503.0000,5.0000,-2.0000,-8.0000,-398.0000,-348.0000,1623.0000,0.1443,-0.1959,0.0472,0.9688,122.3800,3.0700,-52.8700,-17.1600,0.3100,7.6400,0.0000,0.0000,-0.0000,1500.0000,1500.0000,1500.0000,1473.0000
590058.9190,3.0000,1441.0000,1460.0000,1506.0000,6.0000,0.0000,-7.0000,-357.0000,-338.0000,1672.0000,0.1454,-0.1958,0.0475,0.9686,121.9700,3.0900,-52.7100,-17.2900,0.2500,7.6800,0.0000,0.0000,-0.0000,1500.0000,1500.0000,1500.0000,1471.0000
590075.6080,3.0000,1443.0000,1461.0000,1507.0000,8.0000,0.0000,-5.0000,-402.0000,-316.0000,1719.0000,0.1463,-0.1958,0.0482,0.9685,121.9700,3.0900,-52.7100,-17.2900,0.2500,7.6800,0.0000,0.0000,-0.0000,1500.0000,1500.0000,1500.0000,1473.0000
590092.3270,3.0000,1442.0000,1462.0000,1506.0000,8.0000,0.0000,-3.0000,-397.0000,-282.0000,1695.0000,0.1471,-0.1958,0.0493,0.9683,121.5600,3.1100,-52.5500,-17.4100,0.2000,7.7100,0.0000,0.0000,-0.0000,1500.0000,1500.0000,1500.0000,1472.0000
590109.0210,3.0000,1442.0000,1459.0000,1505.0000,4.0000,1.0000,-2.0000,-447.0000,-133.0000,1709.0000,0.1475,-0.1957,0.0502,0.9682,121.1600,3.1300,-52.3900,-17.5100,0.1500,7.7400,0.0000,0.0000,-0.0000,1500.0000,1500.0000,1500.0000,1473.0000
590125.7400,3.0000,1442.0000,1457.0000,1501.0000,-1.0000,0.0000,-1.0000,-455.0000,-174.0000,1724.0000,0.1476,-0.1957,0.0505,0.9682,120.7500,3.1400,-52.2300,-17.6300,0.1100,7.7700,0.0000,0.0000,-0.0000,1500.0000,1498.0000,1500.0000,1472.0000
590142.3380,3.0000,1442.0000,1455.0000,1501.0000,-2.0000,1.0000,-1.0000,-524.0000,-236.0000,1827.0000,0.1475,-0.1958,0.0501,0.9682,120.3200,3.1500,-52.0700,-17.7500,0.0600,7.7900,0.0000,0.0000,-0.0000,1500.0000,1498.0000,1500.0000,1473.0000
590159.0340,3.0000,1442.0000,1455.0000,1499.0000,-5.0000,0.0000,-2.0000,-544.0000,-164.0000,1863.0000,0.1475,-0.1961,0.0494,0.9682,119.9000,3.1600,-51.9000,-17.8500,0.0200,7.8000,0.0000,0.0000,-0.0000,1500.0000,1500.0000,1500.0000,1472.0000
590175.7120,3.0000,1442.0000,1453.0000,1497.0000,-8.0000,0.0000,-4.0000,-522.0000,-65.0000,1870.0000,0.1476,-0.1961,0.0483,0.9682,119.9000,3.1600,-51.9000,-17.8500,0.0200,7.8000,0.0000,0.0000,-0.0000,1500.0000,1500.0000,1500.0000,1473.0000
590192.4710,3.0000,1442.0000,1454.0000,1496.0000,-9.0000,-2.0000,-5.0000,-483.0000,-131.0000,1864.0000,0.1480,-0.1960,0.0469,0.9682,119.4900,3.1700,-51.7400,-17.9500,-0.0100,7.8100,0.0000,0.0000,-0.0000,1498.0000,1500.0000,1500.0000,1470.0000
590209.0090,3.0000,1440.0000,1454.0000,1498.0000,-6.0000,-1.0000,-6.0000,-520.0000,-166.0000,1843.0000,0.1485,-0.1959,0.0456,0.9682,119.0900,3.1800,-51.5800,-18.0300,-0.0400,7.8200,0.0000,0.0000,-0.0000,1498.0000,1500.0000,1500.0000,1470.0000
590225.6600,3.0000,1442.0000,1458.0000,1502.0000,-1.0000,-1.0000,-7.0000,-520.0000,-123.0000,1884.0000,0.1493,-0.1959,0.0450,0.9682,118.6700,3.1900,-51.4200,-18.1200,-0.0800,7.8300,0.0000,0.0000,-0.0000,1500.0000,1498.0000,1500.0000,1472.0000
590242.4800,3.0000,1443.0000,1461.0000,1503.0000,3.0000,-2.0000,-8.0000,-460.0000,-145.0000,1908.0000,0.1503,-0.1956,0.0449,0.9681,118.2400,3.2000,-51.2500,-18.2200,-0.1300,7.8400,0.0000,0.0000,-0.0000,1500.0000,1498.0000,1500.0000,1473.0000
590259.1130,3.0000,1443.0000,1458.0000,1504.0000,1.0000,1.0000,-9.0000,-498.0000,-150.0000,1891.0000,0.1515,-0.1956,0.0449,0.9679,118.2400,3.2000,-51.2500,-18.2200,-0.1300,7.8400,0.0000,0.0000,-0.0000,1500.0000,1498.0000,1500.0000,1473.0000
590275.9000,3.0000,1442.0000,1459.0000,1505.0000,4.0000,1.0000,-9.0000,-454.0000,-286.0000,1845.0000,0.1527,-0.1955,0.0451,0.9677,117.8100,3.2000,-51.0900,-18.3100,-0.1700,7.8500,0.0000,0.0000,-0.0000,1500.0000,1500.0000,1500.0000,1472.0000
590292.7030,3.0000,1443.0000,1460.0000,1502.0000,3.0000,-1.0000,-9.0000,-481.0000,-307.0000,1823.0000,0.1539,-0.1954,0.0453,0.9675,117.4000,3.2000,-50.9200,-18.3800,-0.2200,7.8600,0.0000,0.0000,-0.0000,1500.0000,1498.0000,1500.0000,1473.0000
590309.2660,3.0000,1443.0000,1460.0000,1502.0000,2.0000,-2.0000,-8.0000,-490.0000,-203.0000,1847.0000,0.1551,-0.1951,0.0453,0.9674,116.9900,3.2100,-50.7600,-18.4400,-0.2700,7.8800,0.0000,0.0000,-0.0000,1500.0000,1500.0000,1500.0000,1473.0000
590326.1720,3.0000,1443.0000,1457.0000,1501.0000,0.0000,-1.0000,-9.0000,-504.0000,-86.0000,1920.0000,0.1562,-0.1951,0.0453,0.9672,116.5600,3.2100,-50.6000,-18.5100,-0.3200,7.8900,0.0000,0.0000,-0.0000,1500.0000,1500.0000,1500.0000,1473.0000
590343.0560,2.0000,1442.0000,1459.0000,1501.0000,0.0000,-1.0000,-8.0000,-483.0000,-184.0000,1985.0000,0.1572,-0.1948,0.0452,0.9671,116.1300,3.2100,-50.4300,-18.6000,-0.3600,7.9000,0.0000,0.0000,-0.0000,1500.0000,1500.0000,1500.0000,1472.0000
590359.8170,2.0000,2000.0000,1000.0000,1686.0000,4.0000,-1.0000,-8.0000,-404.0000,-294.0000,1999.0000,0.1582,-0.1945,0.0454,0.9670,116.1300,3.2100,-50.4300,-18.6000,-0.3600,7.9000,0.0000,0.0000,-0.0000,1785.0000,1030.0000,1500.0000,2000.0000
590376.3900,2.0000,2000.0000,1000.0000,1686.0000,-3.0000,-2.0000,-10.0000,-388.0000,-345.0000,2175.0000,0.1593,-0.1942,0.0455,0.9669,115.7000,3.2100,-50.2600,-18.6700,-0.4200,7.9000,0.0000,0.0000,-0.0000,1785.0000,1030.0000,1500.0000,2000.0000
590393.4830,2.0000,2000.0000,1000.0000,1686.0000,-4.0000,-16.0000,-9.0000,10.0000,-446.0000,1741.0000,0.1606,-0.1932,0.0444,0.9669,115.2900,3.2000,-50.1000,-18.7400,-0.4800,7.8900,0.0000,0.0000,-0.0000,1785.0000,1030.0000,1500.0000,2000.0000
590410.4750,2.0000,2000.0000,1000.0000,1686.0000,6.0000,-41.0000,-12.0000,397.0000,-261.0000,1785.0000,0.1624,-0.1887,0.0433,0.9675,114.8700,3.2000,-49.9400,-18.8100,-0.5600,7.9300,0.0000,0.0000,-0.0000,1785.0000,1030.0000,1500.0000,2000.0000
590427.4160,2.0000,2000.0000,1000.0000,1686.0000,28.0000,-92.0000,-19.0000,384.0000,-421.0000,2029.0000,0.1654,-0.1781,0.0434,0.9690,114.4000,3.2000,-49.7600,-18.9600,-0.6400,8.0000,0.0000,0.0000,-0.0000,1785.0000,1030.0000,1500.0000,2000.0000
590444.3510,2.0000,1946.0000,1000.0000,1806.0000,53.0000,-143.0000,-30.0000,42.0000,-778.0000,2696.0000,0.1708,-0.1602,0.0457,0.9711,113.8700,3.1900,-49.5800,-19.1400,-0.7500,8.1000,0.0000,0.0000,-0.0000,1244.0000,1032.0000,1500.0000,1774.0000
590460.8620,2.0000,1760.0000,1288.0000,2000.0000,71.0000,-182.0000,-38.0000,156.0000,-810.0000,5171.0000,0.1781,-0.1352,0.0496,0.9734,113.8700,3.1900,-49.5800,-19.1400,-0.7500,8.1000,0.0000,0.0000,-0.0000,1244.0000,1032.0000,1500.0000,1774.0000
590477.9510,2.0000,1760.0000,1288.0000,2000.0000,81.0000,-206.0000,-42.0000,481.0000,-823.0000,7993.0000,0.1867,-0.1052,0.0548,0.9752,113.3600,3.1900,-49.3900,-19.2800,-0.9000,8.0200,0.0000,0.0000,-0.0000,1244.0000,1032.0000,1500.0000,1774.0000
590494.9330,2.0000,1760.0000,1288.0000,2000.0000,64.0000,-210.0000,-37.0000,695.0000,-914.0000,10326.0000,0.1952,-0.0731,0.0591,0.9762,112.8900,3.1900,-49.1900,-19.4300,-1.0800,7.6700,0.0000,0.0000,-0.0000,1244.0000,1032.0000,1500.0000,1774.0000
590511.7160,2.0000,1760.0000,1288.0000,2000.0000,15.0000,-203.0000,-25.0000,894.0000,-1233.0000,12374.0000,0.2017,-0.0425,0.0586,0.9768,112.4400,3.1800,-49.0100,-19.5300,-1.2800,7.0600,0.0000,0.0000,-0.0000,1244.0000,1032.0000,1500.0000,1774.0000
590528.3450,2.0000,1760.0000,1288.0000,2000.0000,-22.0000,-193.0000,-10.0000,1147.0000,-1512.0000,13957.0000,0.2057,-0.0147,0.0517,0.9771,111.9500,3.1600,-48.8300,-19.6200,-1.5400,6.1800,0.0000,0.0000,-0.0000,1244.0000,1032.0000,1500.0000,1774.0000
590544.9960,2.0000,1760.0000,1288.0000,2000.0000,-46.0000,-179.0000,-2.0000,1078.0000,-1463.0000,14161.0000,0.2079,0.0106,0.0408,0.9772,111.4400,3.1400,-48.6600,-19.6500,-1.7800,5.1300,0.0000,0.0000,-0.0000,1244.0000,1032.0000,1500.0000,1774.0000
590562.0600,2.0000,1999.0000,1000.0000,1511.0000,-64.0000,-157.0000,2.0000,999.0000,-1315.0000,14515.0000,0.2090,0.0336,0.0277,0.9769,111.4400,3.1400,-48.6600,-19.6500,-1.7800,5.1300,0.0000,0.0000,-0.0000,1934.0000,1057.0000,1500.0000,2000.0000
590578.7990,2.0000,2000.0000,1000.0000,1510.0000,-73.0000,-121.0000,8.0000,670.0000,-1118.0000,14568.0000,0.2096,0.0510,0.0138,0.9764,110.9700,3.1100,-48.5200,-19.5800,-1.9400,4.0200,0.0000,0.0000,-0.0000,1934.0000,1057.0000,1500.0000,2000.0000
590595.9360,2.0000,2000.0000,1000.0000,1510.0000,-59.0000,-80.0000,11.0000,645.0000,-1110.0000,13345.0000,0.2090,0.0635,0.0002,0.9758,110.5300,3.0800,-48.4100,-19.4300,-2.0000,2.8700,0.0000,0.0000,-0.0000,1934.0000,1057.0000,1500.0000,2000.0000
590612.9310,2.0000,2000.0000,1000.0000,1510.0000,-17.0000,-42.0000,7.0000,657.0000,-1029.0000,12105.0000,0.2082,0.0715,-0.0077,0.9754,110.1200,3.0500,-48.3200,-19.2400,-2.0000,1.8300,0.0000,0.0000,-0.0000,1934.0000,1057.0000,1500.0000,2000.0000
590629.6800,2.0000,2000.0000,1000.0000,1510.0000,7.0000,-15.0000,-4.0000,601.0000,-605.0000,10256.0000,0.2083,0.0758,-0.0094,0.9751,109.6700,3.0200,-48.2500,-19.1600,-2.0400,0.9500,0.0000,0.0000,-0.0000,1934.0000,1057.0000,1500.0000,2000.0000
590646.5340,2.0000,2000.0000,1000.0000,1510.0000,42.0000,0.0000,-8.0000,670.0000,-682.0000,8943.0000,0.2089,0.0778,-0.0060,0.9748,109.1900,2.9800,-48.1900,-19.1500,-2.1000,0.2600,0.0000,0.0000,-0.0000,1934.0000,1057.0000,1500.0000,2000.0000
590663.3220,2.0000,1774.0000,1260.0000,2000.0000,60.0000,8.0000,-16.0000,904.0000,-992.0000,7500.0000,0.2103,0.0789,0.0018,0.9744,109.1900,2.9800,-48.1900,-19.1500,-2.1000,0.2600,0.0000,0.0000,-0.0000,1273.0000,1034.0000,1500.0000,1787.0000
590679.9460,2.0000,1774.0000,1260.0000,2000.0000,92.0000,-6.0000,-24.0000,601.0000,-823.0000,6051.0000,0.2123,0.0804,0.0132,0.9738,108.7400,2.9500,-48.1300,-19.1400,-2.2100,-0.2600,0.0000,0.0000,-0.0000,1273.0000,1034.0000,1500.0000,1787.0000
590696.7770,2.0000,1774.0000,1260.0000,2000.0000,88.0000,-22.0000,-33.0000,110.0000,-445.0000,4289.0000,0.2155,0.0851,0.0265,0.9724,108.3300,2.9100,-48.0900,-19.1200,-2.3100,-0.5900,0.0000,0.0000,-0.0000,1273.0000,1034.0000,1500.0000,1787.0000
590713.5650,2.0000,1774.0000,1260.0000,2000.0000,45.0000,-46.0000,-31.0000,-6.0000,-122.0000,3814.0000,0.2194,0.0920,0.0358,0.9706,107.9400,2.8800,-48.0500,-19.0700,-2.3500,-0.7300,0.0000,0.0000,-0.0000,1273.0000,1034.0000,1500.0000,1787.0000
590730.3110,2.0000,1774.0000,1260.0000,2000.0000,-7.0000,-89.0000,-24.0000,26.0000,-451.0000,4121.0000,0.2235,0.1018,0.0366,0.9687,107.4800,2.8300,-48.0000,-19.2100,-2.5100,-0.8300,0.0000,0.0000,-0.0000,1273.0000,1034.0000,1500.0000,1787.0000
590747.4440,2.0000,1774.0000,1260.0000,2000.0000,-37.0000,-122.0000,-15.0000,68.0000,-677.0000,5207.0000,0.2274,0.1161,0.0298,0.9664,107.0200,2.7800,-47.9600,-19.3700,-2.7600,-1.0100,0.0000,0.0000,-0.0000,1273.0000,1034.0000,1500.0000,1787.0000
590764.4300,2.0000,1993.0000,1000.0000,1534.0000,-63.0000,-161.0000,-8.0000,-64.0000,-784.0000,6134.0000,0.2308,0.1345,0.0177,0.9635,107.0200,2.7800,-47.9600,-19.3700,-2.7600,-1.0100,0.0000,0.0000,-0.0000,1898.0000,1069.0000,1500.0000,1994.0000
590781.4980,2.0000,1993.0000,1000.0000,1534.0000,-80.0000,-171.0000,-3.0000,150.0000,-684.0000,7700.0000,0.2337,0.1561,0.0014,0.9597,106.5700,2.7200,-47.9100,-19.4300,-2.9600,-1.2600,0.0000,0.0000,-0.0000,1898.0000,1069.0000,1500.0000,1994.0000
590798.5190,2.0000,1993.0000,1000.0000,1534.0000,-61.0000,-181.0000,-5.0000,730.0000,-889.0000,9670.0000,0.2361,0.1785,-0.0155,0.9551,106.1600,2.6600,-47.8800,-19.4000,-3.1000,-1.6500,0.0000,0.0000,-0.0000,1898.0000,1069.0000,1500.0000,1994.0000
590815.2140,2.0000,1993.0000,1000.0000,1534.0000,-19.0000,-177.0000,-11.0000,1195.0000,-1110.0000,11254.0000,0.2379,0.2019,-0.0271,0.9497,105.7700,2.6100,-47.8500,-19.2900,-3.2100,-2.2600,0.0000,0.0000,-0.0000,1898.0000,1069.0000,1500.0000,1994.0000
590831.8860,2.0000,1993.0000,1000.0000,1534.0000,23.0000,-163.0000,-18.0000,1527.0000,-1154.0000,12201.0000,0.2394,0.2256,-0.0322,0.9438,105.3200,2.5400,-47.8300,-19.0800,-3.3300,-3.0000,0.0000,0.0000,-0.0000,1898.0000,1069.0000,1500.0000,1994.0000
590848.8460,2.0000,1994.0000,1000.0000,1536.0000,55.0000,-147.0000,-24.0000,1623.0000,-1128.0000,12625.0000,0.2406,0.2487,-0.0316,0.9377,104.8800,2.4600,-47.8300,-18.7900,-3.4300,-3.8000,0.0000,0.0000,-0.0000,1908.0000,1051.0000,1500.0000,1999.0000
590865.4170,2.0000,1998.0000,1000.0000,1542.0000,73.0000,-120.0000,-32.0000,1481.0000,-1109.0000,12108.0000,0.2419,0.2693,-0.0266,0.9318,104.8800,2.4600,-47.8300,-18.7900,-3.4300,-3.8000,0.0000,0.0000,-0.0000,1908.0000,1051.0000,1500.0000,1999.0000
590882.1820,2.0000,1998.0000,1000.0000,1542.0000,75.0000,-83.0000,-39.0000,1297.0000,-1044.0000,12121.0000,0.2439,0.2859,-0.0190,0.9265,104.4600,2.3900,-47.8400,-18.4400,-3.5000,-4.6000,0.0000,0.0000,-0.0000,1908.0000,1051.0000,1500.0000,1999.0000
590899.1490,2.0000,1998.0000,1000.0000,1542.0000,77.0000,-43.0000,-40.0000,1176.0000,-847.0000,10947.0000,0.2461,0.2971,-0.0093,0.9225,104.0800,2.3200,-47.8600,-18.0700,-3.5500,-5.3500,0.0000,0.0000,-0.0000,1908.0000,1051.0000,1500.0000,1999.0000
590916.0150,2.0000,1998.0000,1000.0000,1542.0000,91.0000,-26.0000,-45.0000,1331.0000,-926.0000,9863.0000,0.2482,0.3043,0.0026,0.9197,103.7300,2.2500,-47.9000,-17.7500,-3.6100,-6.0000,0.0000,0.0000,-0.0000,1908.0000,1051.0000,1500.0000,1999.0000
590932.4650,2.0000,1998.0000,1000.0000,1542.0000,101.0000,-23.0000,-52.0000,1022.0000,-809.0000,8092.0000,0.2505,0.3110,0.0163,0.9167,103.3200,2.1600,-47.9600,-17.3900,-3.7600,-6.5600,0.0000,0.0000,-0.0000,1908.0000,1051.0000,1500.0000,1999.0000
590949.0950,2.0000,1996.0000,1000.0000,1574.0000,108.0000,-18.0000,-55.0000,1109.0000,-982.0000,7234.0000,0.2528,0.3170,0.0319,0.9136,103.3200,2.1600,-47.9600,-17.3900,-3.7600,-6.5600,0.0000,0.0000,-0.0000,1863.0000,1058.0000,1500.0000,1997.0000
590965.9490,2.0000,1996.0000,1000.0000,1580.0000,118.0000,-21.0000,-55.0000,933.0000,-881.0000,5897.0000,0.2548,0.3233,0.0491,0.9100,102.9200,2.0700,-48.0400,-17.0800,-3.9300,-6.9600,0.0000,0.0000,-0.0000,1863.0000,1058.0000,1500.0000,1997.0000
590982.5890,2.0000,1996.0000,1000.0000,1580.0000,127.0000,-32.0000,-55.0000,878.0000,-696.0000,4880.0000,0.2561,0.3303,0.0669,0.9060,102.5500,1.9800,-48.1200,-16.8300,-4.1200,-7.2300,0.0000,0.0000,-0.0000,1863.0000,1058.0000,1500.0000,1997.0000
590999.6410,2.0000,1996.0000,1000.0000,1580.0000,134.0000,-54.0000,-52.0000,832.0000,-868.0000,4682.0000,0.2574,0.3403,0.0853,0.9004,102.2100,1.8900,-48.1900,-16.6700,-4.2900,-7.3600,0.0000,0.0000,-0.0000,1863.0000,1058.0000,1500.0000,1997.0000
591016.2420,2.0000,1996.0000,1000.0000,1580.0000,138.0000,-77.0000,-50.0000,822.0000,-1003.0000,4796.0000,0.2580,0.3529,0.1032,0.8934,101.8900,1.8100,-48.2700,-16.5100,-4.4500,-7.4400,0.0000,0.0000,-0.0000,1863.0000,1058.0000,1500.0000,1997.0000
591032.8180,2.0000,1996.0000,1000.0000,1580.0000,147.0000,-95.0000,-47.0000,906.0000,-1060.0000,5159.0000,0.2582,0.3685,0.1209,0.8848,101.5100,1.7000,-48.3600,-16.1800,-4.6500,-7.5200,0.0000,0.0000,-0.0000,1863.0000,1058.0000,1500.0000,1997.0000
591049.7630,2.0000,1999.0000,1476.0000,2000.0000,150.0000,-110.0000,-45.0000,1077.0000,-822.0000,5567.0000,0.2575,0.3865,0.1390,0.8747,101.5100,1.7000,-48.3600,-16.1800,-4.6500,-7.5200,0.0000,0.0000,-0.0000,1035.0000,1020.0000,1500.0000,2000.0000
591066.7420,2.0000,2000.0000,1485.0000,2000.0000,146.0000,-118.0000,-39.0000,889.0000,-667.0000,5946.0000,0.2563,0.4059,0.1564,0.8632,101.1500,1.5900,-48.4500,-15.7900,-4.8400,-7.6200,0.0000,0.0000,-0.0000,1035.0000,1020.0000,1500.0000,2000.0000
591083.4430,2.0000,2000.0000,1485.0000,2000.0000,139.0000,-130.0000,-35.0000,1037.0000,-699.0000,6638.0000,0.2547,0.4261,0.1723,0.8508,100.8200,1.4800,-48.5400,-15.3800,-4.9900,-7.7300,0.0000,0.0000,-0.0000,1035.0000,1020.0000,1500.0000,2000.0000
591099.8440,2.0000,2000.0000,1485.0000,2000.0000,103.0000,-136.0000,-28.0000,1121.0000,-625.0000,7253.0000,0.2543,0.4459,0.1843,0.8382,100.5100,1.3700,-48.6400,-14.9200,-5.1300,-7.8700,0.0000,0.0000,-0.0000,1035.0000,1020.0000,1500.0000,2000.0000
591116.7370,2.0000,2000.0000,1485.0000,2000.0000,40.0000,-144.0000,-13.0000,1357.0000,-868.0000,8411.0000,0.2555,0.4651,0.1894,0.8261,100.2300,1.2700,-48.7400,-14.4000,-5.2800,-8.0500,0.0000,0.0000,-0.0000,1035.0000,1020.0000,1500.0000,2000.0000
591133.5990,2.0000,2000.0000,1485.0000,2000.0000,-27.0000,-139.0000,5.0000,1138.0000,-898.0000,8814.0000,0.2594,0.4823,0.1850,0.8160,99.9200,1.1500,-48.8500,-13.7200,-5.5400,-8.2500,0.0000,0.0000,-0.0000,1035.0000,1020.0000,1500.0000,2000.0000
591150.5000,2.0000,2000.0000,1000.0000,1479.0000,-74.0000,-130.0000,18.0000,1462.0000,-1065.0000,9550.0000,0.2649,0.4964,0.1727,0.8084,99.9200,1.1500,-48.8500,-13.7200,-5.5400,-8.2500,0.0000,0.0000,-0.0000,1965.0000,1059.0000,1500.0000,2000.0000
591167.3740,2.0000,2000.0000,1000.0000,1477.0000,-113.0000,-113.0000,28.0000,1673.0000,-1103.0000,9900.0000,0.2718,0.5075,0.1549,0.8028,99.6300,1.0200,-48.9700,-12.9800,-5.7700,-8.4600,0.0000,0.0000,-0.0000,1965.0000,1059.0000,1500.0000,2000.0000
591184.0100,2.0000,2000.0000,1000.0000,1477.0000,-137.0000,-101.0000,33.0000,1559.0000,-812.0000,9698.0000,0.2796,0.5154,0.1338,0.7989,99.3700,0.8900,-49.1000,-12.2300,-5.9600,-8.7100,0.0000,0.0000,-0.0000,1965.0000,1059.0000,1500.0000,2000.0000
591200.8090,2.0000,2000.0000,1000.0000,1477.0000,-120.0000,-103.0000,31.0000,1372.0000,-736.0000,8836.0000,0.2874,0.5226,0.1119,0.7949,99.1300,0.7700,-49.2400,-11.5400,-6.0600,-8.9600,0.0000,0.0000,-0.0000,1965.0000,1059.0000,1500.0000,2000.0000
591217.8870,2.0000,2000.0000,1000.0000,1477.0000,-71.0000,-107.0000,23.0000,1391.0000,-583.0000,8149.0000,0.2930,0.5313,0.0942,0.7893,98.9100,0.6500,-49.3800,-10.9500,-6.0800,-9.1800,0.0000,0.0000,-0.0000,1965.0000,1059.0000,1500.0000,2000.0000
591234.5440,2.0000,2000.0000,1000.0000,1477.0000,-21.0000,-113.0000,8.0000,1479.0000,-438.0000,8085.0000,0.2960,0.5421,0.0832,0.7820,98.6800,0.5100,-49.5300,-10.3400,-6.1700,-9.3800,0.0000,0.0000,-0.0000,1965.0000,1059.0000,1500.0000,2000.0000
591251.5550,2.0000,2000.0000,1000.0000,1477.0000,26.0000,-111.0000,-9.0000,1417.0000,-337.0000,8260.0000,0.2970,0.5552,0.0789,0.7729,98.6800,0.5100,-49.5300,-10.3400,-6.1700,-9.3800,0.0000,0.0000,-0.0000,1965.0000,1059.0000,1500.0000,2000.0000
591268.6720,2.0000,2000.0000,1155.0000,2000.0000,63.0000,-104.0000,-26.0000,1511.0000,-313.0000,8359.0000,0.2963,0.5695,0.0809,0.7625,98.4500,0.3700,-49.6800,-9.7200,-6.2300,-9.5800,0.0000,0.0000,-0.0000,1357.0000,1013.0000,1500.0000,2000.0000
591285.6010,2.0000,2000.0000,1155.0000,2000.0000,80.0000,-97.0000,-39.0000,1547.0000,-111.0000,8178.0000,0.2948,0.5834,0.0877,0.7517,98.2500,0.2300,-49.8400,-9.1100,-6.2700,-9.7600,0.0000,0.0000,-0.0000,1357.0000,1013.0000,1500.0000,2000.0000
591302.5140,2.0000,2000.0000,1155.0000,2000.0000,61.0000,-103.0000,-47.0000,1736.0000,-350.0000,7966.0000,0.2941,0.5969,0.0957,0.7404,98.0700,0.1000,-50.0100,-8.5500,-6.3000,-9.9100,0.0000,0.0000,-0.0000,1357.0000,1013.0000,1500.0000,2000.0000
591319.1060,2.0000,2000.0000,1155.0000,2000.0000,21.0000,-117.0000,-51.0000,1553.0000,-371.0000,7199.0000,0.2971,0.6095,0.0998,0.7282,97.9100,-0.0200,-50.1700,-8.0200,-6.3600,-10.0400,0.0000,0.0000,-0.0000,1357.0000,1013.0000,1500.0000,2000.0000
591335.6590,2.0000,2000.0000,1155.0000,2000.0000,-11.0000,-132.0000,-51.0000,1099.0000,-196.0000,6465.0000,0.3037,0.6217,0.0995,0.7151,97.7400,-0.1700,-50.3400,-7.3600,-6.5300,-10.0900,0.0000,0.0000,-0.0000,1357.0000,1013.0000,1500.0000,2000.0000
591352.4400,2.0000,2000.0000,1151.0000,2000.0000,-30.0000,-147.0000,-48.0000,1292.0000,-674.0000,7538.0000,0.3127,0.6346,0.0958,0.7003,97.7400,-0.1700,-50.3400,-7.3600,-6.5300,-10.0900,0.0000,0.0000,-0.0000,1380.0000,1028.0000,1500.0000,2000.0000
591369.0800,2.0000,2000.0000,1147.0000,2000.0000,-43.0000,-152.0000,-47.0000,1578.0000,-909.0000,8358.0000,0.3226,0.6471,0.0899,0.6849,97.5800,-0.3300,-50.5200,-6.6800,-6.7000,-10.0900,0.0000,0.0000,-0.0000,1380.0000,1028.0000,1500.0000,2000.0000
591386.0890,2.0000,2000.0000,1147.0000,2000.0000,-49.0000,-152.0000,-44.0000,1608.0000,-698.0000,8429.0000,0.3332,0.6594,0.0828,0.6688,97.4400,-0.4900,-50.6900,-5.9100,-6.8400,-10.0800,0.0000,0.0000,-0.0000,1380.0000,1028.0000,1500.0000,2000.0000
591403.0100,2.0000,2000.0000,1147.0000,2000.0000,-51.0000,-146.0000,-39.0000,1493.0000,-646.0000,8338.0000,0.3434,0.6710,0.0750,0.6528,97.3200,-0.6400,-50.8600,-5.2000,-6.9200,-10.0500,0.0000,0.0000,-0.0000,1380.0000,1028.0000,1500.0000,2000.0000
591419.8050,2.0000,2000.0000,1147.0000,2000.0000,-49.0000,-144.0000,-35.0000,1704.0000,-819.0000,8744.0000,0.3530,0.6817,0.0670,0.6374,97.2200,-0.7900,-51.0300,-4.5500,-6.9400,-9.9900,0.0000,0.0000,-0.0000,1380.0000,1028.0000,1500.0000,2000.0000
591436.3740,2.0000,2000.0000,1147.0000,2000.0000,-46.0000,-145.0000,-31.0000,1696.0000,-713.0000,8649.0000,0.3616,0.6919,0.0589,0.6221,97.1300,-0.9600,-51.2000,-3.6700,-6.9500,-9.9200,0.0000,0.0000,-0.0000,1380.0000,1028.0000,1500.0000,2000.0000
591453.2520,2.0000,2000.0000,1280.0000,2000.0000,-47.0000,-138.0000,-24.0000,1795.0000,-987.0000,8942.0000,0.3697,0.7021,0.0505,0.6066,97.1300,-0.9600,-51.2000,-3.6700,-6.9500,-9.9200,0.0000,0.0000,-0.0000,1236.0000,1022.0000,1500.0000,2000.0000
591470.1010,2.0000,2000.0000,1286.0000,2000.0000,-47.0000,-130.0000,-21.0000,1868.0000,-1095.0000,9184.0000,0.3770,0.7110,0.0420,0.5922,97.0500,-1.1300,-51.3700,-2.8300,-6.9300,-9.8200,0.0000,0.0000,-0.0000,1236.0000,1022.0000,1500.0000,2000.0000
591486.8240,2.0000,2000.0000,1286.0000,2000.0000,-54.0000,-119.0000,-19.0000,1692.0000,-635.0000,8833.0000,0.3842,0.7187,0.0334,0.5786,97.0000,-1.2900,-51.5400,-2.0200,-6.8700,-9.7000,0.0000,0.0000,-0.0000,1236.0000,1022.0000,1500.0000,2000.0000
591503.8630,2.0000,2000.0000,1286.0000,2000.0000,-67.0000,-104.0000,-14.0000,1298.0000,-529.0000,8140.0000,0.3923,0.7247,0.0240,0.5660,96.9600,-1.4500,-51.7100,-1.3300,-6.7700,-9.5800,0.0000,0.0000,-0.0000,1236.0000,1022.0000,1500.0000,2000.0000
591521.0230,2.0000,2000.0000,1286.0000,2000.0000,-67.0000,-101.0000,-12.0000,1243.0000,-515.0000,7430.0000,0.4006,0.7291,0.0145,0.5548,96.9300,-1.6000,-51.8700,-0.8000,-6.6600,-9.4300,0.0000,0.0000,-0.0000,1236.0000,1022.0000,1500.0000,2000.0000
591537.8430,2.0000,2000.0000,1286.0000,2000.0000,-60.0000,-99.0000,-12.0000,1404.0000,-479.0000,6985.0000,0.4082,0.7331,0.0053,0.5440,96.9100,-1.7800,-52.0400,-0.0900,-6.6600,-9.2900,0.0000,0.0000,-0.0000,1236.0000,1022.0000,1500.0000,2000.0000
591554.7940,2.0000,2000.0000,1368.0000,2000.0000,-54.0000,-100.0000,-12.0000,1863.0000,-696.0000,7396.0000,0.4150,0.7376,-0.0033,0.5327,96.9100,-1.7800,-52.0400,-0.0900,-6.6600,-9.2900,0.0000,0.0000,-0.0000,1157.0000,1026.0000,1500.0000,2000.0000
591571.6630,2.0000,2000.0000,1369.0000,2000.0000,-52.0000,-108.0000,-12.0000,1933.0000,-684.0000,7373.0000,0.4211,0.7425,-0.0117,0.5208,96.9100,-1.9500,-52.2100,0.5800,-6.6700,-9.1500,0.0000,0.0000,-0.0000,1157.0000,1026.0000,1500.0000,2000.0000
591588.6910,2.0000,2000.0000,1369.0000,2000.0000,-60.0000,-109.0000,-10.0000,1807.0000,-703.0000,7255.0000,0.4274,0.7472,-0.0208,0.5085,96.9200,-2.1300,-52.3700,1.2200,-6.6500,-9.0100,0.0000,0.0000,-0.0000,1157.0000,1026.0000,1500.0000,2000.0000
591605.4390,2.0000,2000.0000,1369.0000,2000.0000,-68.0000,-110.0000,-9.0000,1589.0000,-837.0000,7020.0000,0.4343,0.7516,-0.0308,0.4956,96.9400,-2.2900,-52.5400,1.7600,-6.6200,-8.8500,0.0000,0.0000,-0.0000,1157.0000,1026.0000,1500.0000,2000.0000
591622.5220,2.0000,2000.0000,1369.0000,2000.0000,-78.0000,-112.0000,-6.0000,1612.0000,-827.0000,6881.0000,0.4420,0.7549,-0.0419,0.4827,96.9700,-2.4400,-52.6900,2.2200,-6.5700,-8.6700,0.0000,0.0000,-0.0000,1157.0000,1026.0000,1500.0000,2000.0000
591639.3920,2.0000,2000.0000,1369.0000,2000.0000,-83.0000,-119.0000,-6.0000,1177.0000,-451.0000,6110.0000,0.4502,0.7579,-0.0539,0.4691,97.0300,-2.6200,-52.8600,2.9900,-6.4800,-8.4900,0.0000,0.0000,-0.0000,1157.0000,1026.0000,1500.0000,2000.0000
591656.0100,2.0000,2000.0000,1369.0000,2000.0000,-91.0000,-125.0000,-7.0000,920.0000,-155.0000,5761.0000,0.4590,0.7604,-0.0666,0.4547,97.0300,-2.6200,-52.8600,2.9900,-6.4800,-8.4900,0.0000,0.0000,-0.0000,1157.0000,1026.0000,1500.0000,2000.0000
591672.5520,2.0000,2000.0000,1357.0000,2000.0000,-97.0000,-128.0000,-7.0000,1574.0000,-368.0000,6749.0000,0.4682,0.7624,-0.0800,0.4395,97.1000,-2.8000,-53.0200,3.6000,-6.3800,-8.3000,0.0000,0.0000,-0.0000,1173.0000,1030.0000,1500.0000,2000.0000
591689.6860,2.0000,2000.0000,1357.0000,2000.0000,-99.0000,-132.0000,-9.0000,1832.0000,-389.0000,7162.0000,0.4778,0.7641,-0.0939,0.4232,97.1800,-2.9700,-53.1800,4.1900,-6.2200,-8.1100,0.0000,0.0000,-0.0000,1173.0000,1030.0000,1500.0000,2000.0000
591706.6760,2.0000,2000.0000,1357.0000,2000.0000,-103.0000,-137.0000,-11.0000,1952.0000,-482.0000,7502.0000,0.4878,0.7651,-0.1080,0.4063,97.2600,-3.1200,-53.3300,4.7600,-6.0100,-7.9400,0.0000,0.0000,-0.0000,1173.0000,1030.0000,1500.0000,2000.0000
591723.4130,2.0000,2000.0000,1357.0000,2000.0000,-106.0000,-134.0000,-14.0000,1776.0000,-289.0000,7495.0000,0.4977,0.7655,-0.1217,0.3892,97.3500,-3.2600,-53.4900,5.2500,-5.7600,-7.7500,0.0000,0.0000,-0.0000,1173.0000,1030.0000,1500.0000,2000.0000
591740.2720,2.0000,2000.0000,1357.0000,2000.0000,-106.0000,-128.0000,-15.0000,1890.0000,-461.0000,7722.0000,0.5078,0.7654,-0.1352,0.3714,97.4800,-3.4200,-53.6500,5.9900,-5.3800,-7.5400,0.0000,0.0000,-0.0000,1173.0000,1030.0000,1500.0000,2000.0000
591756.9780,2.0000,2000.0000,1310.0000,2000.0000,-101.0000,-122.0000,-13.0000,1654.0000,-440.0000,7615.0000,0.5173,0.7648,-0.1480,0.3545,97.4800,-3.4200,-53.6500,5.9900,-5.3800,-7.5400,0.0000,0.0000,-0.0000,1215.0000,1025.0000,1500.0000,2000.0000
591773.8630,2.0000,2000.0000,1310.0000,2000.0000,-96.0000,-113.0000,-11.0000,1615.0000,-146.0000,7473.0000,0.5260,0.7634,-0.1597,0.3391,97.6200,-3.5700,-53.8000,6.6300,-4.9900,-7.3100,0.0000,0.0000,-0.0000,1215.0000,1025.0000,1500.0000,2000.0000
591790.9620,2.0000,2000.0000,1310.0000,2000.0000,-89.0000,-104.0000,-8.0000,1667.0000,-198.0000,7259.0000,0.5339,0.7620,-0.1711,0.3242,97.7700,-3.7000,-53.9500,7.1300,-4.6400,-7.1000,0.0000,0.0000,-0.0000,1215.0000,1025.0000,1500.0000,2000.0000
591807.9540,2.0000,2000.0000,1310.0000,2000.0000,-88.0000,-100.0000,-5.0000,1602.0000,-628.0000,7220.0000,0.5413,0.7600,-0.1820,0.3102,97.9100,-3.8300,-54.1000,7.5500,-4.3200,-6.8700,0.0000,0.0000,-0.0000,1215.0000,1025.0000,1500.0000,2000.0000
591824.8990,2.0000,2000.0000,1310.0000,2000.0000,-88.0000,-85.0000,-1.0000,1534.0000,-518.0000,6586.0000,0.5486,0.7571,-0.1922,0.2981,98.0600,-3.9400,-54.2400,7.9300,-4.0600,-6.6300,0.0000,0.0000,-0.0000,1215.0000,1025.0000,1500.0000,2000.0000
591841.6860,2.0000,2000.0000,1310.0000,2000.0000,-83.0000,-77.0000,3.0000,1777.0000,-336.0000,6631.0000,0.5555,0.7539,-0.2023,0.2867,98.2700,-4.0800,-54.3900,8.5900,-3.7100,-6.4200,0.0000,0.0000,-0.0000,1215.0000,1025.0000,1500.0000,2000.0000
591858.4640,2.0000,2000.0000,1368.0000,2000.0000,-74.0000,-72.0000,1.0000,1809.0000,-383.0000,6440.0000,0.5618,0.7505,-0.2114,0.2765,98.2700,-4.0800,-54.3900,8.5900,-3.7100,-6.4200,0.0000,0.0000,-0.0000,1156.0000,1026.0000,1500.0000,2000.0000
591875.4210,2.0000,2000.0000,1370.0000,2000.0000,-79.0000,-71.0000,1.0000,1524.0000,-434.0000,5762.0000,0.5678,0.7472,-0.2198,0.2666,98.4700,-4.2000,-54.5300,9.1600,-3.4200,-6.2500,0.0000,0.0000,-0.0000,1156.0000,1026.0000,1500.0000,2000.0000
591892.2240,2.0000,2000.0000,1370.0000,2000.0000,-83.0000,-72.0000,-4.0000,1388.0000,-55.0000,5374.0000,0.5741,0.7434,-0.2282,0.2562,98.6800,-4.3200,-54.6800,9.6200,-3.2000,-6.0700,0.0000,0.0000,-0.0000,1156.0000,1026.0000,1500.0000,2000.0000
591908.8330,2.0000,2000.0000,1370.0000,2000.0000,-82.0000,-78.0000,-6.0000,1388.0000,63.0000,5269.0000,0.5803,0.7398,-0.2365,0.2451,98.8800,-4.4200,-54.8200,9.9400,-3.0400,-5.9400,0.0000,0.0000,-0.0000,1156.0000,1026.0000,1500.0000,2000.0000
591925.6480,2.0000,2000.0000,1370.0000,2000.0000,-84.0000,-73.0000,-12.0000,1489.0000,-71.0000,5354.0000,0.5866,0.7360,-0.2448,0.2329,99.0800,-4.5200,-54.9600,10.2400,-2.8300,-5.8100,0.0000,0.0000,-0.0000,1156.0000,1026.0000,1500.0000,2000.0000
591942.6230,2.0000,2000.0000,1370.0000,2000.0000,-91.0000,-75.0000,-16.0000,1409.0000,201.0000,5008.0000,0.5938,0.7315,-0.2525,0.2205,99.3400,-4.6100,-55.1100,10.7400,-2.3300,-5.7000,0.0000,0.0000,-0.0000,1156.0000,1026.0000,1500.0000,2000.0000
591959.3790,2.0000,2000.0000,1323.0000,2000.0000,-88.0000,-71.0000,-20.0000,1329.0000,110.0000,4833.0000,0.6010,0.7269,-0.2592,0.2081,99.3400,-4.6100,-55.1100,10.7400,-2.3300,-5.7000,0.0000,0.0000,-0.0000,1203.0000,1026.0000,1500.0000,2000.0000
591976.0480,2.0000,2000.0000,1323.0000,2000.0000,-88.0000,-74.0000,-26.0000,1594.0000,-160.0000,5349.0000,0.6080,0.7224,-0.2651,0.1953,99.6000,-4.7000,-55.2600,11.1300,-1.9100,-5.5900,0.0000,0.0000,-0.0000,1203.0000,1026.0000,1500.0000,2000.0000
591993.3110,2.0000,2000.0000,1323.0000,2000.0000,-93.0000,-80.0000,-34.0000,1427.0000,-163.0000,4874.0000,0.6153,0.7178,-0.2712,0.1806,99.8400,-4.7700,-55.4100,11.4700,-1.5100,-5.4500,0.0000,0.0000,-0.0000,1203.0000,1026.0000,1500.0000,2000.0000
592010.1570,2.0000,2000.0000,1323.0000,2000.0000,-100.0000,-92.0000,-38.0000,1211.0000,-351.0000,4624.0000,0.6227,0.7130,-0.2771,0.1648,100.0800,-4.8200,-55.5600,11.7300,-1.1800,-5.3200,0.0000,0.0000,-0.0000,1203.0000,1026.0000,1500.0000,2000.0000
592026.5590,2.0000,2000.0000,1323.0000,2000.0000,-106.0000,-92.0000,-40.0000,1205.0000,-280.0000,4887.0000,0.6302,0.7076,-0.2834,0.1479,100.3200,-4.8700,-55.7000,11.9600,-0.8500,-5.1700,0.0000,0.0000,-0.0000,1203.0000,1026.0000,1500.0000,2000.0000
592043.4540,2.0000,2000.0000,1323.0000,2000.0000,-101.0000,-97.0000,-41.0000,1560.0000,-150.0000,5572.0000,0.6376,0.7018,-0.2898,0.1301,100.3200,-4.8700,-55.7000,11.9600,-0.8500,-5.1700,0.0000,0.0000,-0.0000,1203.0000,1026.0000,1500.0000,2000.0000
592060.5170,2.0000,2000.0000,1332.0000,2000.0000,-97.0000,-98.0000,-43.0000,1768.0000,-148.0000,6184.0000,0.6444,0.6961,-0.2960,0.1120,100.6300,-4.9100,-55.8500,12.3300,-0.2500,-5.0100,0.0000,0.0000,-0.0000,1195.0000,1027.0000,1500.0000,2000.0000
592077.1770,2.0000,2000.0000,1332.0000,2000.0000,-93.0000,-95.0000,-44.0000,1692.0000,-219.0000,6196.0000,0.6504,0.6907,-0.3017,0.0943,100.9200,-4.9300,-56.0000,12.6100,0.3500,-4.8700,0.0000,0.0000,-0.0000,1195.0000,1027.0000,1500.0000,2000.0000
592093.9350,2.0000,2000.0000,1332.0000,2000.0000,-91.0000,-93.0000,-43.0000,1630.0000,-351.0000,6209.0000,0.6563,0.6849,-0.3070,0.0770,101.2000,-4.9400,-56.1400,12.8200,0.8900,-4.7200,0.0000,0.0000,-0.0000,1195.0000,1027.0000,1500.0000,2000.0000
592110.7440,2.0000,2000.0000,1332.0000,2000.0000,-83.0000,-78.0000,-41.0000,1401.0000,-302.0000,5680.0000,0.6615,0.6794,-0.3116,0.0606,101.4700,-4.9400,-56.2800,12.9500,1.3500,-4.5500,0.0000,0.0000,-0.0000,1195.0000,1027.0000,1500.0000,2000.0000
592127.3340,2.0000,2000.0000,1332.0000,2000.0000,-74.0000,-77.0000,-39.0000,1505.0000,-410.0000,5820.0000,0.6661,0.6743,-0.3155,0.0457,101.7400,-4.9300,-56.4100,13.0700,1.8000,-4.3900,0.0000,0.0000,-0.0000,1195.0000,1027.0000,1500.0000,2000.0000
592144.3010,2.0000,2000.0000,1016.0000,1902.0000,-67.0000,-64.0000,-39.0000,1499.0000,-562.0000,5676.0000,0.6701,0.6698,-0.3184,0.0321,101.7400,-4.9300,-56.4100,13.0700,1.8000,-4.3900,0.0000,0.0000,-0.0000,1696.0000,1069.0000,1500.0000,2000.0000
592161.0510,2.0000,2000.0000,1000.0000,1737.0000,-64.0000,-55.0000,-36.0000,1294.0000,-356.0000,5060.0000,0.6737,0.6655,-0.3205,0.0199,102.0600,-4.8900,-56.5400,13.2700,2.4400,-4.2100,0.0000,0.0000,-0.0000,1696.0000,1069.0000,1500.0000,2000.0000
592178.1030,2.0000,2000.0000,1000.0000,1737.0000,-51.0000,-58.0000,-38.0000,1497.0000,-472.0000,4985.0000,0.6769,0.6619,-0.3220,0.0086,102.3700,-4.8500,-56.6700,13.4100,2.9300,-4.0400,0.0000,0.0000,-0.0000,1696.0000,1069.0000,1500.0000,2000.0000
592195.1290,2.0000,2000.0000,1000.0000,1737.0000,-31.0000,-69.0000,-43.0000,1255.0000,-423.0000,4029.0000,0.6778,0.6598,-0.3244,-0.0036,102.6600,-4.8000,-56.7900,13.5200,3.3500,-3.8800,0.0000,0.0000,-0.0000,1696.0000,1069.0000,1500.0000,2000.0000
592212.1260,2.0000,2000.0000,1000.0000,1737.0000,-8.0000,-80.0000,-49.0000,1639.0000,-343.0000,4430.0000,0.6759,0.6601,-0.3273,-0.0164,102.9300,-4.7500,-56.9100,13.6100,3.6300,-3.7200,0.0000,0.0000,-0.0000,1696.0000,1069.0000,1500.0000,2000.0000
592228.9360,2.0000,2000.0000,1000.0000,1737.0000,3.0000,-98.0000,-54.0000,1498.0000,-299.0000,3905.0000,0.6719,0.6622,-0.3303,-0.0294,103.2100,-4.6800,-57.0300,13.7000,3.9900,-3.5700,0.0000,0.0000,-0.0000,1696.0000,1069.0000,1500.0000,2000.0000
592245.8610,2.0000,2000.0000,1000.0000,1737.0000,11.0000,-104.0000,-62.0000,1521.0000,-250.0000,4113.0000,0.6660,0.6653,-0.3343,-0.0446,103.2100,-4.6800,-57.0300,13.7000,3.9900,-3.5700,0.0000,0.0000,-0.0000,1696.0000,1069.0000,1500.0000,2000.0000
592262.5780,2.0000,2000.0000,1476.0000,2000.0000,14.0000,-126.0000,-69.0000,1260.0000,8.0000,3671.0000,0.6586,0.6690,-0.3391,-0.0616,103.5400,-4.5900,-57.1400,13.8000,4.5800,-3.4000,0.0000,0.0000,-0.0000,1052.0000,1029.0000,1500.0000,2000.0000
592279.3360,2.0000,2000.0000,1477.0000,2000.0000,8.0000,-143.0000,-74.0000,1633.0000,-213.0000,5029.0000,0.6501,0.6724,-0.3445,-0.0806,103.8500,-4.4900,-57.2500,13.8500,5.0400,-3.2400,0.0000,0.0000,-0.0000,1052.0000,1029.0000,1500.0000,2000.0000
592296.2410,2.0000,2000.0000,1477.0000,2000.0000,-8.0000,-158.0000,-73.0000,1801.0000,-689.0000,6234.0000,0.6412,0.6745,-0.3514,-0.1023,104.1400,-4.3900,-57.3600,13.8200,5.5400,-3.0400,0.0000,0.0000,-0.0000,1052.0000,1029.0000,1500.0000,2000.0000
592313.1780,2.0000,2000.0000,1477.0000,2000.0000,-40.0000,-164.0000,-66.0000,1602.0000,-750.0000,6482.0000,0.6340,0.6733,-0.3588,-0.1259,104.4100,-4.2800,-57.4500,13.7200,6.0600,-2.7800,0.0000,0.0000,-0.0000,1052.0000,1029.0000,1500.0000,2000.0000
592329.8470,2.0000,2000.0000,1477.0000,2000.0000,-72.0000,-154.0000,-56.0000,1658.0000,-994.0000,7123.0000,0.6301,0.6683,-0.3660,-0.1498,104.6800,-4.1600,-57.5400,13.5700,6.6300,-2.4800,0.0000,0.0000,-0.0000,1052.0000,1029.0000,1500.0000,2000.0000
592346.7110,2.0000,2000.0000,1477.0000,2000.0000,-100.0000,-146.0000,-47.0000,1664.0000,-799.0000,7264.0000,0.6291,0.6597,-0.3725,-0.1738,104.6800,-4.1600,-57.5400,13.5700,6.6300,-2.4800,0.0000,0.0000,-0.0000,1052.0000,1029.0000,1500.0000,2000.0000
592363.7480,2.0000,2000.0000,1000.0000,1467.0000,-120.0000,-132.0000,-38.0000,1685.0000,-631.0000,7273.0000,0.6313,0.6481,-0.3777,-0.1969,105.0100,-3.9900,-57.6300,13.4000,7.4400,-2.1500,0.0000,0.0000,-0.0000,1966.0000,1068.0000,1500.0000,2000.0000
592380.5830,2.0000,2000.0000,1000.0000,1467.0000,-126.0000,-118.0000,-32.0000,1835.0000,-898.0000,7698.0000,0.6351,0.6349,-0.3818,-0.2186,105.3000,-3.8200,-57.7000,13.1900,8.1200,-1.8700,0.0000,0.0000,-0.0000,1966.0000,1068.0000,1500.0000,2000.0000
592397.6160,2.0000,2000.0000,1000.0000,1467.0000,-115.0000,-110.0000,-26.0000,1633.0000,-858.0000,7228.0000,0.6391,0.6213,-0.3854,-0.2388,105.5700,-3.6500,-57.7700,12.9400,8.7200,-1.5600,0.0000,0.0000,-0.0000,1966.0000,1068.0000,1500.0000,2000.0000
592414.6950,2.0000,2000.0000,1000.0000,1467.0000,-71.0000,-110.0000,-28.0000,1833.0000,-588.0000,6683.0000,0.6407,0.6102,-0.3893,-0.2561,105.8400,-3.4600,-57.8300,12.7000,9.2600,-1.3000,0.0000,0.0000,-0.0000,1966.0000,1068.0000,1500.0000,2000.0000
592431.6950,2.0000,2000.0000,1000.0000,1467.0000,-23.0000,-112.0000,-33.0000,1659.0000,-601.0000,6509.0000,0.6372,0.6034,-0.3950,-0.2716,106.1500,-3.2200,-57.8900,12.4900,9.9300,-1.0800,0.0000,0.0000,-0.0000,1966.0000,1068.0000,1500.0000,2000.0000
592448.6160,2.0000,2000.0000,1000.0000,1556.0000,20.0000,-106.0000,-40.0000,1491.0000,-453.0000,6326.0000,0.6297,0.6014,-0.4014,-0.2842,106.4400,-2.9900,-57.9400,12.2900,10.4600,-0.8700,0.0000,0.0000,-0.0000,1615.0000,1023.0000,1500.0000,2000.0000
592465.6550,2.0000,2000.0000,1000.0000,1864.0000,56.0000,-99.0000,-44.0000,1626.0000,-479.0000,6483.0000,0.6182,0.6034,-0.4085,-0.2947,106.4400,-2.9900,-57.9400,12.2900,10.4600,-0.8700,0.0000,0.0000,-0.0000,1615.0000,1023.0000,1500.0000,2000.0000
592482.4340,2.0000,2000.0000,1000.0000,1864.0000,82.0000,-97.0000,-49.0000,1765.0000,-756.0000,6677.0000,0.6043,0.6086,-0.4156,-0.3029,106.7100,-2.7600,-57.9800,12.0800,10.8900,-0.6600,0.0000,0.0000,-0.0000,1615.0000,1023.0000,1500.0000,2000.0000
592499.3990,2.0000,2000.0000,1000.0000,1864.0000,85.0000,-103.0000,-50.0000,1623.0000,-724.0000,6082.0000,0.5885,0.6150,-0.4231,-0.3104,106.9500,-2.5300,-58.0200,11.8600,11.2700,-0.4000,0.0000,0.0000,-0.0000,1615.0000,1023.0000,1500.0000,2000.0000
592516.4350,2.0000,2000.0000,1000.0000,1864.0000,60.0000,-115.0000,-48.0000,1531.0000,-904.0000,5637.0000,0.5727,0.6198,-0.4310,-0.3196,107.2000,-2.3000,-58.0600,11.6300,11.6400,-0.1500,0.0000,0.0000,-0.0000,1615.0000,1023.0000,1500.0000,2000.0000
592533.0810,2.0000,2000.0000,1000.0000,1864.0000,39.0000,-129.0000,-46.0000,1382.0000,-726.0000,5237.0000,0.5586,0.6211,-0.4387,-0.3312,107.4800,-2.0100,-58.0900,11.3200,12.2200,0.1400,0.0000,0.0000,-0.0000,1615.0000,1023.0000,1500.0000,2000.0000
592549.7240,2.0000,2000.0000,1267.0000,2000.0000,27.0000,-150.0000,-44.0000,1445.0000,-547.0000,5458.0000,0.5449,0.6201,-0.4468,-0.3449,107.7400,-1.7300,-58.1100,11.0300,12.6600,0.4300,0.0000,0.0000,-0.0000,1251.0000,1020.0000,1500.0000,2000.0000
592566.4070,2.0000,2000.0000,1268.0000,2000.0000,20.0000,-160.0000,-43.0000,1768.0000,-558.0000,6317.0000,0.5306,0.6170,-0.4558,-0.3605,107.7400,-1.7300,-58.1100,11.0300,12.6600,0.4300,0.0000,0.0000,-0.0000,1251.0000,1020.0000,1500.0000,2000.0000
592583.1440,2.0000,2000.0000,1268.0000,2000.0000,-3.0000,-162.0000,-38.0000,1796.0000,-600.0000,6935.0000,0.5169,0.6121,-0.4646,-0.3772,107.9700,-1.4700,-58.1300,10.6900,13.0500,0.7300,0.0000,0.0000,-0.0000,1251.0000,1020.0000,1500.0000,2000.0000
592600.0710,2.0000,2000.0000,1268.0000,2000.0000,-28.0000,-164.0000,-33.0000,1953.0000,-791.0000,7776.0000,0.5053,0.6045,-0.4722,-0.3953,108.1800,-1.2100,-58.1400,10.3100,13.3800,1.0400,0.0000,0.0000,-0.0000,1251.0000,1020.0000,1500.0000,2000.0000
592617.0370,2.0000,2000.0000,1268.0000,2000.0000,-40.0000,-165.0000,-29.0000,1898.0000,-949.0000,8091.0000,0.4953,0.5946,-0.4791,-0.4143,108.4000,-0.9300,-58.1400,9.7900,13.7800,1.4000,0.0000,0.0000,-0.0000,1251.0000,1020.0000,1500.0000,2000.0000
592633.8470,2.0000,2000.0000,1268.0000,2000.0000,-47.0000,-169.0000,-26.0000,1751.0000,-677.0000,7842.0000,0.4863,0.5835,-0.4851,-0.4331,108.6200,-0.6100,-58.1400,9.1600,14.3000,1.7600,0.0000,0.0000,-0.0000,1251.0000,1020.0000,1500.0000,2000.0000
592650.5960,2.0000,2000.0000,1000.0000,1467.0000,-57.0000,-165.0000,-25.0000,1915.0000,-517.0000,8267.0000,0.4777,0.5714,-0.4907,-0.4522,108.8200,-0.3000,-58.1200,8.5500,14.7000,2.0900,0.0000,0.0000,-0.0000,1973.0000,1065.0000,1500.0000,2000.0000
592667.6020,2.0000,2000.0000,1000.0000,1463.0000,-66.0000,-155.0000,-20.0000,1888.0000,-603.0000,8692.0000,0.4700,0.5581,-0.4952,-0.4715,108.8200,-0.3000,-58.1200,8.5500,14.7000,2.0900,0.0000,0.0000,-0.0000,1973.0000,1065.0000,1500.0000,2000.0000
592684.6270,2.0000,2000.0000,1000.0000,1463.0000,-63.0000,-144.0000,-17.0000,1694.0000,-682.0000,8699.0000,0.4638,0.5448,-0.4986,-0.4893,109.0000,0.0000,-58.1000,7.9300,15.0000,2.4000,0.0000,0.0000,-0.0000,1973.0000,1065.0000,1500.0000,2000.0000
592701.5450,2.0000,2000.0000,1000.0000,1463.0000,-44.0000,-132.0000,-16.0000,1457.0000,-504.0000,8316.0000,0.4574,0.5327,-0.5020,-0.5049,109.1500,0.2800,-58.0800,7.3300,15.2000,2.7000,0.0000,0.0000,-0.0000,1973.0000,1065.0000,1500.0000,2000.0000
592718.4630,2.0000,2000.0000,1000.0000,1463.0000,-23.0000,-111.0000,-20.0000,1250.0000,-412.0000,8100.0000,0.4500,0.5231,-0.5059,-0.5177,109.3000,0.6000,-58.0400,6.7200,15.4100,2.9800,0.0000,0.0000,-0.0000,1973.0000,1065.0000,1500.0000,2000.0000
592735.1100,2.0000,2000.0000,1000.0000,1463.0000,-10.0000,-74.0000,-21.0000,1544.0000,-309.0000,8325.0000,0.4434,0.5168,-0.5085,-0.5270,109.4500,0.9600,-58.0000,6.0500,15.7100,3.2100,0.0000,0.0000,-0.0000,1973.0000,1065.0000,1500.0000,2000.0000
592752.1260,2.0000,2000.0000,1000.0000,1463.0000,14.0000,-43.0000,-26.0000,1211.0000,-380.0000,7239.0000,0.4376,0.5146,-0.5102,-0.5324,109.5800,1.3000,-57.9600,5.4700,15.9700,3.4300,0.0000,0.0000,-0.0000,1973.0000,1065.0000,1500.0000,2000.0000
592769.1330,2.0000,2000.0000,1000.0000,1960.0000,33.0000,-23.0000,-32.0000,1497.0000,-255.0000,6840.0000,0.4320,0.5163,-0.5112,-0.5344,109.5800,1.3000,-57.9600,5.4700,15.9700,3.4300,0.0000,0.0000,-0.0000,1522.0000,1020.0000,1500.0000,2000.0000
592786.1430,2.0000,2000.0000,1000.0000,1960.0000,47.0000,-7.0000,-42.0000,1527.0000,-272.0000,5985.0000,0.4253,0.5210,-0.5120,-0.5344,109.6900,1.6300,-57.9300,5.0700,16.1900,3.6000,0.0000,0.0000,-0.0000,1522.0000,1020.0000,1500.0000,2000.0000
592802.7470,2.0000,2000.0000,1000.0000,1960.0000,44.0000,-21.0000,-54.0000,1386.0000,-39.0000,4580.0000,0.4181,0.5270,-0.5118,-0.5343,109.7900,1.9400,-57.9000,4.8000,16.4000,3.7600,0.0000,0.0000,-0.0000,1522.0000,1020.0000,1500.0000,2000.0000
592819.4750,2.0000,2000.0000,1000.0000,1960.0000,30.0000,-42.0000,-62.0000,1141.0000,336.0000,2762.0000,0.4089,0.5318,-0.5115,-0.5370,109.8800,2.2400,-57.8700,4.7100,16.5600,3.8700,0.0000,0.0000,-0.0000,1522.0000,1020.0000,1500.0000,2000.0000
592836.1580,2.0000,2000.0000,1000.0000,1960.0000,10.0000,-84.0000,-69.0000,1073.0000,7.0000,2625.0000,0.3980,0.5330,-0.5113,-0.5441,109.9800,2.5700,-57.8400,4.5500,16.8200,3.9700,0.0000,0.0000,-0.0000,1522.0000,1020.0000,1500.0000,2000.0000
592853.2930,2.0000,2000.0000,1397.0000,2000.0000,-4.0000,-114.0000,-74.0000,1184.0000,-356.0000,3548.0000,0.3848,0.5307,-0.5111,-0.5559,109.9800,2.5700,-57.8400,4.5500,16.8200,3.9700,0.0000,0.0000,-0.0000,1127.0000,1025.0000,1500.0000,2000.0000
592869.8830,2.0000,2000.0000,1398.0000,2000.0000,-14.0000,-138.0000,-77.0000,1249.0000,-533.0000,4551.0000,0.3703,0.5258,-0.5111,-0.5703,110.0800,2.9600,-57.8200,4.1200,17.1800,4.1200,0.0000,0.0000,-0.0000,1127.0000,1025.0000,1500.0000,2000.0000
592886.6470,2.0000,2000.0000,1398.0000,2000.0000,-28.0000,-161.0000,-76.0000,1035.0000,-423.0000,4807.0000,0.3545,0.5180,-0.5112,-0.5872,110.1600,3.3200,-57.7900,3.6200,17.4300,4.3700,0.0000,0.0000,-0.0000,1127.0000,1025.0000,1500.0000,2000.0000
592903.6820,2.0000,2000.0000,1398.0000,2000.0000,-49.0000,-165.0000,-68.0000,1350.0000,-277.0000,5975.0000,0.3393,0.5075,-0.5101,-0.6059,110.2200,3.6600,-57.7500,3.1300,17.6000,4.6100,0.0000,0.0000,-0.0000,1127.0000,1025.0000,1500.0000,2000.0000
592920.6080,2.0000,2000.0000,1398.0000,2000.0000,-67.0000,-165.0000,-59.0000,1580.0000,-469.0000,7274.0000,0.3258,0.4946,-0.5078,-0.6256,110.2700,4.0400,-57.7000,2.4300,17.7800,4.8600,0.0000,0.0000,-0.0000,1127.0000,1025.0000,1500.0000,2000.0000
592937.6180,2.0000,2000.0000,1398.0000,2000.0000,-78.0000,-156.0000,-49.0000,1746.0000,-841.0000,8267.0000,0.3145,0.4806,-0.5042,-0.6449,110.3100,4.4700,-57.6500,1.5200,17.9800,5.1300,0.0000,0.0000,-0.0000,1127.0000,1025.0000,1500.0000,2000.0000
592954.1310,2.0000,2000.0000,1398.0000,2000.0000,-84.0000,-143.0000,-38.0000,2039.0000,-1205.0000,9098.0000,0.3056,0.4664,-0.4999,-0.6627,110.3100,4.4700,-57.6500,1.5200,17.9800,5.1300,0.0000,0.0000,-0.0000,1127.0000,1025.0000,1500.0000,2000.0000
592970.8680,2.0000,2000.0000,1000.0000,1880.0000,-90.0000,-135.0000,-28.0000,1721.0000,-1067.0000,8783.0000,0.2985,0.4516,-0.4948,-0.6797,110.3300,4.8700,-57.5900,0.6200,18.0600,5.4200,0.0000,0.0000,-0.0000,1573.0000,1050.0000,1500.0000,2000.0000
592987.8890,2.0000,2000.0000,1000.0000,1879.0000,-94.0000,-129.0000,-19.0000,1779.0000,-1028.0000,8782.0000,0.2936,0.4365,-0.4889,-0.6959,110.3300,5.2500,-57.5100,-0.1800,18.0600,5.6900,0.0000,0.0000,-0.0000,1573.0000,1050.0000,1500.0000,2000.0000
593004.6970,2.0000,2000.0000,1000.0000,1879.0000,-80.0000,-132.0000,-17.0000,1446.0000,-850.0000,8121.0000,0.2887,0.4210,-0.4837,-0.7110,110.3100,5.6000,-57.4400,-0.8500,18.0100,5.9000,0.0000,0.0000,-0.0000,1573.0000,1050.0000,1500.0000,2000.0000
593021.7460,2.0000,2000.0000,1000.0000,1879.0000,-57.0000,-139.0000,-16.0000,1567.0000,-927.0000,8419.0000,0.2821,0.4052,-0.4807,-0.7247,110.2800,5.9800,-57.3500,-1.4500,18.0200,6.0600,0.0000,0.0000,-0.0000,1573.0000,1050.0000,1500.0000,2000.0000
593038.5240,2.0000,2000.0000,1000.0000,1879.0000,-46.0000,-138.0000,-15.0000,1606.0000,-743.0000,8342.0000,0.2745,0.3902,-0.4795,-0.7365,110.2400,6.4100,-57.2600,-2.0800,18.0800,6.2000,0.0000,0.0000,-0.0000,1573.0000,1050.0000,1500.0000,2000.0000
593055.4270,2.0000,2000.0000,1515.0000,1703.0000,-36.0000,-137.0000,-17.0000,1566.0000,-669.0000,8533.0000,0.2662,0.3752,-0.4793,-0.7474,110.2400,6.4100,-57.2600,-2.0800,18.0800,6.2000,0.0000,0.0000,-0.0000,1389.0000,1405.0000,1500.0000,2000.0000
593072.2220,2.0000,2000.0000,1516.0000,1704.0000,-29.0000,-141.0000,-22.0000,1549.0000,-717.0000,8979.0000,0.2569,0.3605,-0.4796,-0.7577,110.2000,6.8100,-57.1600,-2.5900,18.0800,6.3000,0.0000,0.0000,-0.0000,1389.0000,1405.0000,1500.0000,2000.0000
593088.9430,2.0000,2000.0000,1516.0000,1704.0000,-23.0000,-134.0000,-24.0000,1731.0000,-772.0000,9566.0000,0.2469,0.3463,-0.4800,-0.7672,110.1400,7.1800,-57.0600,-3.0700,18.0000,6.3600,0.0000,0.0000,-0.0000,1389.0000,1405.0000,1500.0000,2000.0000
593105.6530,2.0000,2000.0000,1516.0000,1704.0000,-29.0000,-120.0000,-25.0000,1668.0000,-764.0000,9436.0000,0.2374,0.3336,-0.4801,-0.7758,110.0800,7.5300,-56.9600,-3.5100,17.8600,6.3800,0.0000,0.0000,-0.0000,1389.0000,1405.0000,1500.0000,2000.0000
593122.3390,2.0000,2000.0000,1516.0000,1704.0000,-49.0000,-104.0000,-26.0000,1429.0000,-749.0000,9254.0000,0.2294,0.3221,-0.4779,-0.7844,110.0000,7.9100,-56.8500,-4.1600,17.7200,6.3700,0.0000,0.0000,-0.0000,1389.0000,1405.0000,1500.0000,2000.0000
593139.2590,2.0000,2000.0000,1516.0000,1704.0000,-73.0000,-92.0000,-25.0000,1303.0000,-568.0000,8776.0000,0.2232,0.3109,-0.4725,-0.7939,109.9000,8.3200,-56.7500,-4.9200,17.5700,6.3400,0.0000,0.0000,-0.0000,1389.0000,1405.0000,1500.0000,2000.0000
593156.2310,2.0000,2000.0000,2000.0000,1615.0000,-108.0000,-73.0000,-24.0000,1453.0000,-623.0000,8860.0000,0.2192,0.3001,-0.4630,-0.8046,109.9000,8.3200,-56.7500,-4.9200,17.5700,6.3400,0.0000,0.0000,-0.0000,1060.0000,1826.0000,1500.0000,2000.0000
593173.1190,2.0000,2000.0000,2000.0000,1615.0000,-131.0000,-62.0000,-24.0000,1659.0000,-674.0000,8838.0000,0.2180,0.2903,-0.4494,-0.8162,109.8000,8.7000,-56.6400,-5.5500,17.4200,6.2800,0.0000,0.0000,-0.0000,1060.0000,1826.0000,1500.0000,2000.0000
593190.3700,2.0000,2000.0000,2000.0000,1615.0000,-140.0000,-40.0000,-26.0000,1638.0000,-445.0000,8553.0000,0.2182,0.2816,-0.4326,-0.8282,109.6800,9.0600,-56.5300,-6.1100,17.2600,6.1800,0.0000,0.0000,-0.0000,1060.0000,1826.0000,1500.0000,2000.0000
593207.0060,2.0000,2000.0000,2000.0000,1615.0000,-165.0000,-12.0000,-32.0000,1240.0000,-252.0000,7989.0000,0.2199,0.2756,-0.4137,-0.8394,109.5700,9.3900,-56.4300,-6.5600,17.1300,6.0600,0.0000,0.0000,-0.0000,1060.0000,1826.0000,1500.0000,2000.0000
593223.7660,2.0000,2000.0000,2000.0000,1615.0000,-215.0000,35.0000,-34.0000,1159.0000,-402.0000,8369.0000,0.2247,0.2733,-0.3883,-0.8509,109.4300,9.7600,-56.3300,-7.1500,17.0000,5.8800,0.0000,0.0000,-0.0000,1060.0000,1826.0000,1500.0000,2000.0000
593240.3410,2.0000,2000.0000,1647.0000,1351.0000,-271.0000,77.0000,-37.0000,1127.0000,-437.0000,7726.0000,0.2332,0.2741,-0.3545,-0.8630,109.2600,10.1500,-56.2300,-7.8500,16.8600,5.6600,0.0000,0.0000,-0.0000,1969.0000,1460.0000,1500.0000,2000.0000
593257.2010,2.0000,2000.0000,1000.0000,1071.0000,-321.0000,130.0000,-40.0000,980.0000,-408.0000,5879.0000,0.2459,0.2793,-0.3106,-0.8747,109.2600,10.1500,-56.2300,-7.8500,16.8600,5.6600,0.0000,0.0000,-0.0000,1969.0000,1460.0000,1500.0000,2000.0000
593274.3040,2.0000,2000.0000,1000.0000,1071.0000,-326.0000,186.0000,-40.0000,1532.0000,-203.0000,3575.0000,0.2611,0.2890,-0.2597,-0.8837,109.0900,10.5100,-56.1400,-8.3800,16.8100,5.4700,0.0000,0.0000,-0.0000,1969.0000,1460.0000,1500.0000,2000.0000
593291.3430,2.0000,2000.0000,1000.0000,1071.0000,-270.0000,236.0000,-40.0000,1543.0000,-130.0000,392.0000,0.2764,0.3059,-0.2097,-0.8866,108.9300,10.8500,-56.0600,-8.6900,16.9100,5.4000,0.0000,0.0000,-0.0000,1969.0000,1460.0000,1500.0000,2000.0000
593308.1400,2.0000,2000.0000,1000.0000,1071.0000,-142.0000,251.0000,-44.0000,1562.0000,-143.0000,-3066.0000,0.2881,0.3308,-0.1699,-0.8824,108.7700,11.1700,-55.9800,-8.7500,17.1200,5.5300,0.0000,0.0000,-0.0000,1969.0000,1460.0000,1500.0000,2000.0000
593324.9570,2.0000,2000.0000,1000.0000,1071.0000,23.0000,261.0000,-52.0000,1409.0000,-45.0000,-6207.0000,0.2906,0.3623,-0.1492,-0.8729,108.5800,11.5300,-55.9000,-8.8700,17.1400,5.8900,0.0000,0.0000,-0.0000,1969.0000,1460.0000,1500.0000,2000.0000
593342.0750,2.0000,2000.0000,2000.0000,1618.0000,172.0000,217.0000,-65.0000,1129.0000,200.0000,-9342.0000,0.2822,0.3991,-0.1488,-0.8596,108.3600,11.9000,-55.8200,-8.9000,16.9800,6.3600,0.0000,0.0000,-0.0000,1079.0000,1798.0000,1500.0000,2000.0000
593358.6520,2.0000,2000.0000,2000.0000,1624.0000,290.0000,135.0000,-83.0000,682.0000,231.0000,-11387.0000,0.2623,0.4319,-0.1667,-0.8466,108.3600,11.9000,-55.8200,-8.9000,16.9800,6.3600,0.0000,0.0000,-0.0000,1079.0000,1798.0000,1500.0000,2000.0000
593375.4180,2.0000,2000.0000,2000.0000,1624.0000,345.0000,51.0000,-93.0000,561.0000,269.0000,-10447.0000,0.2322,0.4570,-0.1977,-0.8355,108.1600,12.2500,-55.7800,-8.6000,16.8300,6.6700,0.0000,0.0000,-0.0000,1079.0000,1798.0000,1500.0000,2000.0000
593392.3330,2.0000,2000.0000,2000.0000,1624.0000,321.0000,-27.0000,-97.0000,781.0000,244.0000,-7338.0000,0.1972,0.4711,-0.2324,-0.8277,107.9800,12.5800,-55.7500,-8.2400,16.7100,6.9800,0.0000,0.0000,-0.0000,1079.0000,1798.0000,1500.0000,2000.0000
593409.3330,2.0000,2000.0000,2000.0000,1624.0000,247.0000,-63.0000,-86.0000,1022.0000,-9.0000,-4345.0000,0.1637,0.4763,-0.2624,-0.8231,107.8200,12.8700,-55.7400,-8.1600,16.6300,7.1600,0.0000,0.0000,-0.0000,1079.0000,1798.0000,1500.0000,2000.0000
593426.2230,2.0000,2000.0000,2000.0000,1624.0000,143.0000,-78.0000,-66.0000,1161.0000,-575.0000,-1507.0000,0.1378,0.4750,-0.2819,-0.8222,107.6100,13.2100,-55.7300,-8.5100,16.4900,7.4200,0.0000,0.0000,-0.0000,1079.0000,1798.0000,1500.0000,2000.0000
593443.1230,2.0000,2000.0000,2000.0000,1624.0000,34.0000,-61.0000,-37.0000,1208.0000,-1112.0000,992.0000,0.1228,0.4708,-0.2902,-0.8241,107.3800,13.5500,-55.7000,-9.1300,16.2300,7.7100,0.0000,0.0000,-0.0000,1079.0000,1798.0000,1500.0000,2000.0000
593459.9050,2.0000,2000.0000,1878.0000,1746.0000,-80.0000,-20.0000,-5.0000,1312.0000,-1531.0000,2232.0000,0.1206,0.4663,-0.2863,-0.8283,107.3800,13.5500,-55.7000,-9.1300,16.2300,7.7100,0.0000,0.0000,-0.0000,1188.0000,1568.0000,1500.0000,2000.0000
593476.6680,2.0000,2000.0000,1878.0000,1746.0000,-171.0000,20.0000,20.0000,1315.0000,-1493.0000,2734.0000,0.1306,0.4638,-0.2709,-0.8333,107.1400,13.8700,-55.6600,-9.8600,15.8500,8.0700,0.0000,0.0000,-0.0000,1188.0000,1568.0000,1500.0000,2000.0000
593493.4300,2.0000,2000.0000,1878.0000,1746.0000,-238.0000,65.0000,47.0000,1081.0000,-1250.0000,1719.0000,0.1509,0.4639,-0.2463,-0.8375,106.9000,14.1600,-55.6000,-10.5500,15.4600,8.4300,0.0000,0.0000,-0.0000,1188.0000,1568.0000,1500.0000,2000.0000
593510.4200,2.0000,2000.0000,1878.0000,1746.0000,-304.0000,90.0000,71.0000,1270.0000,-962.0000,-447.0000,0.1798,0.4644,-0.2145,-0.8403,106.6700,14.4200,-55.5300,-11.0600,15.1500,8.7500,0.0000,0.0000,-0.0000,1188.0000,1568.0000,1500.0000,2000.0000
593527.3010,2.0000,2000.0000,1878.0000,1746.0000,-346.0000,99.0000,86.0000,890.0000,-382.0000,-2156.0000,0.2145,0.4642,-0.1767,-0.8410,106.3900,14.7200,-55.4300,-11.3300,14.9600,9.1100,0.0000,0.0000,-0.0000,1188.0000,1568.0000,1500.0000,2000.0000
593544.0630,2.0000,2000.0000,1878.0000,1746.0000,-371.0000,99.0000,98.0000,501.0000,166.0000,-3085.0000,0.2522,0.4621,-0.1355,-0.8393,106.0900,15.0300,-55.3300,-11.3800,14.8200,9.4000,0.0000,0.0000,-0.0000,1188.0000,1568.0000,1500.0000,2000.0000
593560.9060,2.0000,2000.0000,1201.0000,2000.0000,-378.0000,77.0000,98.0000,231.0000,234.0000,-3079.0000,0.2905,0.4564,-0.0926,-0.8359,106.0900,15.0300,-55.3300,-11.3800,14.8200,9.4000,0.0000,0.0000,-0.0000,1322.0000,1024.0000,1500.0000,2000.0000
593577.8460,2.0000,2000.0000,1201.0000,2000.0000,-383.0000,69.0000,91.0000,447.0000,414.0000,-3159.0000,0.3278,0.4472,-0.0488,-0.8308,105.8100,15.3100,-55.2300,-11.3400,14.6500,9.6100,0.0000,0.0000,-0.0000,1322.0000,1024.0000,1500.0000,2000.0000
593595.1160,2.0000,2000.0000,1201.0000,2000.0000,-396.0000,54.0000,78.0000,621.0000,662.0000,-3041.0000,0.3637,0.4339,-0.0028,-0.8242,105.5500,15.5700,-55.1400,-11.2800,14.4700,9.6900,0.0000,0.0000,-0.0000,1322.0000,1024.0000,1500.0000,2000.0000
593611.7110,2.0000,2000.0000,1201.0000,2000.0000,-383.0000,19.0000,61.0000,336.0000,1058.0000,-3613.0000,0.3955,0.4175,0.0412,-0.8170,105.3100,15.8100,-55.0600,-11.2300,14.2900,9.9000,0.0000,0.0000,-0.0000,1322.0000,1024.0000,1500.0000,2000.0000
593628.3590,2.0000,2000.0000,1201.0000,2000.0000,-352.0000,-40.0000,35.0000,329.0000,1302.0000,-3150.0000,0.4225,0.3945,0.0808,-0.8120,105.0300,16.1000,-54.9700,-11.1100,14.1700,10.2500,0.0000,0.0000,-0.0000,1322.0000,1024.0000,1500.0000,2000.0000
593645.0040,2.0000,2000.0000,1000.0000,1667.0000,-302.0000,-96.0000,5.0000,183.0000,1090.0000,-1584.0000,0.4433,0.3658,0.1137,-0.8104,104.7500,16.3800,-54.8500,-11.0500,14.0900,10.6400,0.0000,0.0000,-0.0000,1975.0000,1074.0000,1500.0000,2000.0000
593661.6980,2.0000,2000.0000,1000.0000,1452.0000,-231.0000,-162.0000,-25.0000,90.0000,817.0000,1108.0000,0.4570,0.3333,0.1366,-0.8133,104.7500,16.3800,-54.8500,-11.0500,14.0900,10.6400,0.0000,0.0000,-0.0000,1975.0000,1074.0000,1500.0000,2000.0000
593678.7490,2.0000,2000.0000,1000.0000,1452.0000,-180.0000,-209.0000,-59.0000,111.0000,630.0000,4353.0000,0.4646,0.2955,0.1503,-0.8211,104.4900,16.6500,-54.7200,-11.1100,14.0900,10.9100,0.0000,0.0000,-0.0000,1975.0000,1074.0000,1500.0000,2000.0000
593695.9380,2.0000,2000.0000,1000.0000,1452.0000,-127.0000,-228.0000,-89.0000,718.0000,128.0000,8589.0000,0.4661,0.2559,0.1567,-0.8323,104.2400,16.9000,-54.5800,-11.2900,14.2100,11.0100,0.0000,0.0000,-0.0000,1975.0000,1074.0000,1500.0000,2000.0000
593712.8990,2.0000,2000.0000,1000.0000,1452.0000,-65.0000,-214.0000,-111.0000,1248.0000,-227.0000,11693.0000,0.4617,0.2196,0.1567,-0.8450,104.0100,17.1400,-54.4200,-11.5900,14.5400,10.7800,0.0000,0.0000,-0.0000,1975.0000,1074.0000,1500.0000,2000.0000
593729.3960,2.0000,2000.0000,1000.0000,1452.0000,-10.0000,-188.0000,-126.0000,1687.0000,-817.0000,13972.0000,0.4525,0.1898,0.1512,-0.8581,103.7300,17.4400,-54.2400,-11.9000,15.0500,10.2400,0.0000,0.0000,-0.0000,1975.0000,1074.0000,1500.0000,2000.0000
593746.0650,2.0000,1957.0000,1400.0000,2000.0000,52.0000,-148.0000,-135.0000,1762.0000,-1098.0000,15023.0000,0.4392,0.1668,0.1411,-0.8714,103.4500,17.7500,-54.0500,-12.2000,15.5400,9.4800,0.0000,0.0000,-0.0000,1103.0000,1021.0000,1500.0000,1959.0000
593762.7190,2.0000,1956.0000,1418.0000,2000.0000,100.0000,-102.0000,-139.0000,1492.0000,-1162.0000,14650.0000,0.4227,0.1530,0.1268,-0.8842,103.4500,17.7500,-54.0500,-12.2000,15.5400,9.4800,0.0000,0.0000,-0.0000,1103.0000,1021.0000,1500.0000,1959.0000
593779.4100,2.0000,1956.0000,1418.0000,2000.0000,97.0000,-46.0000,-134.0000,1140.0000,-1378.0000,13489.0000,0.4044,0.1479,0.1121,-0.8956,103.1800,18.0500,-53.8700,-12.4400,15.8900,8.6100,0.0000,0.0000,-0.0000,1103.0000,1021.0000,1500.0000,1959.0000
593796.4180,2.0000,1956.0000,1418.0000,2000.0000,60.0000,-22.0000,-118.0000,978.0000,-1374.0000,11196.0000,0.3863,0.1466,0.1026,-0.9048,102.9200,18.3400,-53.7000,-12.6300,16.0400,7.7500,0.0000,0.0000,-0.0000,1103.0000,1021.0000,1500.0000,1959.0000
593813.0430,2.0000,1956.0000,1418.0000,2000.0000,30.0000,-26.0000,-89.0000,861.0000,-1681.0000,8951.0000,0.3720,0.1448,0.0978,-0.9117,102.6700,18.6000,-53.5300,-12.7400,16.0200,7.1000,0.0000,0.0000,-0.0000,1103.0000,1021.0000,1500.0000,1959.0000
593829.8670,2.0000,1956.0000,1418.0000,2000.0000,-1.0000,-45.0000,-61.0000,511.0000,-1813.0000,7531.0000,0.3623,0.1393,0.0957,-0.9166,102.3900,18.9300,-53.3600,-12.8100,16.0400,6.6900,0.0000,0.0000,-0.0000,1103.0000,1021.0000,1500.0000,1959.0000
593846.3680,2.0000,1956.0000,1418.0000,2000.0000,-26.0000,-67.0000,-34.0000,760.0000,-2022.0000,7595.0000,0.3573,0.1302,0.0962,-0.9198,102.3900,18.9300,-53.3600,-12.8100,16.0400,6.6900,0.0000,0.0000,-0.0000,1103.0000,1021.0000,1500.0000,1959.0000
593863.2370,2.0000,2000.0000,1129.0000,1967.0000,-45.0000,-85.0000,-1.0000,623.0000,-1842.0000,7100.0000,0.3570,0.1178,0.0974,-0.9215,102.1100,19.2600,-53.1800,-12.8500,16.0200,6.3900,0.0000,0.0000,-0.0000,1451.0000,1081.0000,1500.0000,2000.0000
593880.1510,2.0000,2000.0000,1129.0000,1967.0000,-65.0000,-107.0000,26.0000,754.0000,-1693.0000,7512.0000,0.3615,0.1021,0.0997,-0.9214,101.8500,19.5600,-53.0100,-12.8400,15.9800,6.1000,0.0000,0.0000,-0.0000,1451.0000,1081.0000,1500.0000,2000.0000
593897.0630,2.0000,2000.0000,1129.0000,1967.0000,-66.0000,-141.0000,49.0000,943.0000,-1653.0000,8004.0000,0.3696,0.0822,0.1016,-0.9199,101.6100,19.8400,-52.8400,-12.8100,15.9500,5.7600,0.0000,0.0000,-0.0000,1451.0000,1081.0000,1500.0000,2000.0000
593914.0450,2.0000,2000.0000,1129.0000,1967.0000,-49.0000,-178.0000,59.0000,713.0000,-1299.0000,8373.0000,0.3802,0.0580,0.0998,-0.9177,101.3800,20.1200,-52.6700,-12.7900,15.9600,5.3600,0.0000,0.0000,-0.0000,1451.0000,1081.0000,1500.0000,2000.0000
593930.7380,2.0000,2000.0000,1129.0000,1967.0000,-38.0000,-203.0000,64.0000,781.0000,-1147.0000,9890.0000,0.3916,0.0306,0.0943,-0.9148,101.1100,20.4500,-52.5200,-12.7300,16.0500,4.8500,0.0000,0.0000,-0.0000,1451.0000,1081.0000,1500.0000,2000.0000
593947.5040,2.0000,2000.0000,1129.0000,1967.0000,-34.0000,-216.0000,66.0000,1058.0000,-1095.0000,11660.0000,0.4033,0.0012,0.0866,-0.9110,101.1100,20.4500,-52.5200,-12.7300,16.0500,4.8500,0.0000,0.0000,-0.0000,1451.0000,1081.0000,1500.0000,2000.0000
593964.3300,2.0000,1998.0000,1223.0000,2000.0000,-43.0000,-214.0000,65.0000,1342.0000,-893.0000,13405.0000,0.4150,-0.0289,0.0789,-0.9059,100.8400,20.7800,-52.3700,-12.6400,16.1800,4.1200,0.0000,0.0000,-0.0000,1305.0000,1029.0000,1500.0000,1999.0000
593981.1420,2.0000,1998.0000,1223.0000,2000.0000,-54.0000,-199.0000,61.0000,1570.0000,-906.0000,14783.0000,0.4259,-0.0588,0.0729,-0.8999,100.5900,21.1000,-52.2500,-12.4800,16.3000,3.1600,0.0000,0.0000,-0.0000,1305.0000,1029.0000,1500.0000,1999.0000
593998.0890,2.0000,1998.0000,1223.0000,2000.0000,-66.0000,-179.0000,56.0000,1568.0000,-811.0000,15478.0000,0.4351,-0.0870,0.0695,-0.8935,100.3600,21.4100,-52.1400,-12.2400,16.3900,2.0500,0.0000,0.0000,-0.0000,1305.0000,1029.0000,1500.0000,1999.0000
594015.0540,2.0000,1998.0000,1223.0000,2000.0000,-80.0000,-141.0000,49.0000,1328.0000,-765.0000,15280.0000,0.4422,-0.1117,0.0700,-0.8872,100.1400,21.7100,-52.0700,-11.9200,16.4300,0.8500,0.0000,0.0000,-0.0000,1305.0000,1029.0000,1500.0000,1999.0000
594031.7220,2.0000,1998.0000,1223.0000,2000.0000,-86.0000,-95.0000,46.0000,907.0000,-553.0000,14132.0000,0.4477,-0.1319,0.0745,-0.8813,99.8900,22.0500,-52.0100,-11.6800,16.5100,-0.3300,0.0000,0.0000,-0.0000,1305.0000,1029.0000,1500.0000,1999.0000
594048.7130,2.0000,1998.0000,1189.0000,2000.0000,-77.0000,-42.0000,42.0000,730.0000,-646.0000,12396.0000,0.4522,-0.1456,0.0815,-0.8761,99.8900,22.0500,-52.0100,-11.6800,16.5100,-0.3300,0.0000,0.0000,-0.0000,1449.0000,1021.0000,1500.0000,2000.0000
594065.6640,2.0000,2000.0000,1071.0000,2000.0000,-77.0000,-12.0000,43.0000,728.0000,-542.0000,10456.0000,0.4559,-0.1539,0.0907,-0.8719,99.6500,22.3900,-51.9700,-11.4200,16.5400,-1.3300,0.0000,0.0000,-0.0000,1449.0000,1021.0000,1500.0000,2000.0000
594082.5900,2.0000,2000.0000,1071.0000,2000.0000,-80.0000,4.0000,41.0000,613.0000,-533.0000,9010.0000,0.4590,-0.1595,0.1015,-0.8681,99.4200,22.7100,-51.9400,-11.2200,16.5600,-2.1100,0.0000,0.0000,-0.0000,1449.0000,1021.0000,1500.0000,2000.0000
594099.8490,2.0000,2000.0000,1071.0000,2000.0000,-64.0000,-3.0000,31.0000,693.0000,-497.0000,7715.0000,0.4615,-0.1634,0.1122,-0.8647,99.2100,23.0300,-51.9300,-11.0600,16.5600,-2.7000,0.0000,0.0000,-0.0000,1449.0000,1021.0000,1500.0000,2000.0000
594116.6260,2.0000,2000.0000,1071.0000,2000.0000,-49.0000,-17.0000,20.0000,748.0000,-273.0000,6625.0000,0.4630,-0.1675,0.1192,-0.8622,99.0000,23.3200,-51.9100,-10.9500,16.5500,-3.1600,0.0000,0.0000,-0.0000,1449.0000,1021.0000,1500.0000,2000.0000
594133.4360,2.0000,2000.0000,1071.0000,2000.0000,-43.0000,-45.0000,6.0000,699.0000,-220.0000,5699.0000,0.4635,-0.1742,0.1232,-0.8600,98.7500,23.6800,-51.8800,-11.0100,16.6100,-3.4500,0.0000,0.0000,-0.0000,1449.0000,1021.0000,1500.0000,2000.0000
594150.3810,2.0000,1958.0000,1253.0000,2000.0000,-47.0000,-86.0000,-6.0000,400.0000,29.0000,4959.0000,0.4629,-0.1856,0.1243,-0.8578,98.7500,23.6800,-51.8800,-11.0100,16.6100,-3.4500,0.0000,0.0000,-0.0000,1275.0000,1037.0000,1500.0000,1960.0000
594167.0840,2.0000,1957.0000,1261.0000,2000.0000,-52.0000,-117.0000,-17.0000,707.0000,-185.0000,6329.0000,0.4614,-0.2015,0.1235,-0.8551,98.5000,24.0300,-51.8500,-11.0700,16.6400,-3.6200,0.0000,0.0000,-0.0000,1275.0000,1037.0000,1500.0000,1960.0000
594183.8240,2.0000,1957.0000,1261.0000,2000.0000,-59.0000,-151.0000,-25.0000,654.0000,-323.0000,7355.0000,0.4590,-0.2230,0.1206,-0.8515,98.2600,24.3500,-51.8300,-11.0800,16.6400,-3.8100,0.0000,0.0000,-0.0000,1275.0000,1037.0000,1500.0000,1960.0000
594200.8230,2.0000,1957.0000,1261.0000,2000.0000,-70.0000,-162.0000,-27.0000,889.0000,-592.0000,9189.0000,0.4557,-0.2477,0.1172,-0.8469,98.0400,24.6500,-51.8100,-11.0100,16.6100,-4.1000,0.0000,0.0000,-0.0000,1275.0000,1037.0000,1500.0000,1960.0000
594217.6710,2.0000,1957.0000,1261.0000,2000.0000,-85.0000,-160.0000,-27.0000,1186.0000,-651.0000,10088.0000,0.4517,-0.2733,0.1152,-0.8414,97.8400,24.9400,-51.8000,-10.8300,16.5300,-4.5300,0.0000,0.0000,-0.0000,1275.0000,1037.0000,1500.0000,1960.0000
594234.6920,2.0000,1957.0000,1261.0000,2000.0000,-90.0000,-152.0000,-23.0000,1373.0000,-1081.0000,10996.0000,0.4471,-0.2993,0.1148,-0.8351,97.5700,25.3100,-51.7900,-10.6400,16.5500,-5.0600,0.0000,0.0000,-0.0000,1275.0000,1037.0000,1500.0000,1960.0000
594251.5820,2.0000,1998.0000,1366.0000,2000.0000,-90.0000,-151.0000,-19.0000,1461.0000,-1131.0000,11733.0000,0.4428,-0.3243,0.1151,-0.8280,97.5700,25.3100,-51.7900,-10.6400,16.5500,-5.0600,0.0000,0.0000,-0.0000,1169.0000,1035.0000,1500.0000,1999.0000
594268.2120,2.0000,1998.0000,1366.0000,2000.0000,-86.0000,-136.0000,-13.0000,1456.0000,-1089.0000,11996.0000,0.4391,-0.3472,0.1156,-0.8205,97.3200,25.6500,-51.7900,-10.3900,16.5100,-5.6400,0.0000,0.0000,-0.0000,1169.0000,1035.0000,1500.0000,1999.0000
594284.8590,2.0000,1998.0000,1366.0000,2000.0000,-86.0000,-124.0000,-4.0000,1494.0000,-1013.0000,11917.0000,0.4362,-0.3684,0.1169,-0.8126,97.0900,25.9800,-51.8000,-10.0800,16.4300,-6.2200,0.0000,0.0000,-0.0000,1169.0000,1035.0000,1500.0000,1999.0000
594301.6480,2.0000,1998.0000,1366.0000,2000.0000,-90.0000,-114.0000,7.0000,1405.0000,-1132.0000,11569.0000,0.4330,-0.3881,0.1199,-0.8047,96.8800,26.2800,-51.8200,-9.7300,16.3200,-6.7900,0.0000,0.0000,-0.0000,1169.0000,1035.0000,1500.0000,1999.0000
594318.8170,2.0000,1998.0000,1366.0000,2000.0000,-88.0000,-105.0000,21.0000,1347.0000,-1226.0000,11096.0000,0.4307,-0.4067,0.1249,-0.7959,96.6900,26.5700,-51.8500,-9.4100,16.1800,-7.2900,0.0000,0.0000,-0.0000,1169.0000,1035.0000,1500.0000,1999.0000
594335.3740,2.0000,1998.0000,1366.0000,2000.0000,-85.0000,-89.0000,32.0000,1325.0000,-1118.0000,10499.0000,0.4297,-0.4225,0.1309,-0.7872,96.4400,26.9400,-51.8900,-9.1300,16.1800,-7.7300,0.0000,0.0000,-0.0000,1169.0000,1035.0000,1500.0000,1999.0000
594352.0440,2.0000,1999.0000,1000.0000,1742.0000,-78.0000,-77.0000,45.0000,1331.0000,-971.0000,10004.0000,0.4300,-0.4360,0.1376,-0.7785,96.4400,26.9400,-51.8900,-9.1300,16.1800,-7.7300,0.0000,0.0000,-0.0000,1720.0000,1041.0000,1500.0000,2000.0000
594368.9030,2.0000,2000.0000,1000.0000,1741.0000,-72.0000,-64.0000,56.0000,1180.0000,-813.0000,8823.0000,0.4317,-0.4480,0.1452,-0.7693,96.2100,27.3000,-51.9300,-8.8700,16.1600,-8.1000,0.0000,0.0000,-0.0000,1720.0000,1041.0000,1500.0000,2000.0000
594385.9790,2.0000,2000.0000,1000.0000,1741.0000,-69.0000,-70.0000,64.0000,1057.0000,-802.0000,8025.0000,0.4342,-0.4589,0.1537,-0.7598,95.9900,27.6300,-51.9900,-8.6500,16.1400,-8.3900,0.0000,0.0000,-0.0000,1720.0000,1041.0000,1500.0000,2000.0000
594402.9250,2.0000,2000.0000,1000.0000,1741.0000,-48.0000,-69.0000,65.0000,1070.0000,-498.0000,7063.0000,0.4384,-0.4686,0.1609,-0.7499,95.8000,27.9400,-52.0600,-8.5100,16.1100,-8.6000,0.0000,0.0000,-0.0000,1720.0000,1041.0000,1500.0000,2000.0000
594419.7020,2.0000,2000.0000,1000.0000,1741.0000,-23.0000,-80.0000,55.0000,963.0000,-343.0000,6407.0000,0.4435,-0.4773,0.1647,-0.7405,95.6200,28.2400,-52.1200,-8.4200,16.0900,-8.7400,0.0000,0.0000,-0.0000,1720.0000,1041.0000,1500.0000,2000.0000
594436.3590,2.0000,2000.0000,1000.0000,1741.0000,5.0000,-103.0000,41.0000,958.0000,-298.0000,6256.0000,0.4498,-0.4865,0.1633,-0.7310,95.3900,28.6100,-52.2000,-8.1600,15.9900,-8.8600,0.0000,0.0000,-0.0000,1720.0000,1041.0000,1500.0000,2000.0000
594453.1380,2.0000,1993.0000,1261.0000,2000.0000,9.0000,-114.0000,27.0000,929.0000,-197.0000,6230.0000,0.4556,-0.4964,0.1582,-0.7218,95.3900,28.6100,-52.2000,-8.1600,15.9900,-8.8600,0.0000,0.0000,-0.0000,1265.0000,1027.0000,1500.0000,1994.0000
594469.7420,2.0000,1993.0000,1261.0000,2000.0000,11.0000,-139.0000,9.0000,962.0000,-160.0000,6576.0000,0.4603,-0.5082,0.1507,-0.7122,95.1700,28.9500,-52.2900,-7.9400,15.8800,-8.9400,0.0000,0.0000,-0.0000,1265.0000,1027.0000,1500.0000,1994.0000
594486.6120,2.0000,1993.0000,1261.0000,2000.0000,2.0000,-149.0000,-4.0000,1095.0000,-89.0000,7043.0000,0.4635,-0.5223,0.1407,-0.7018,94.9800,29.2800,-52.3800,-7.6900,15.7300,-9.0100,0.0000,0.0000,-0.0000,1265.0000,1027.0000,1500.0000,1994.0000
594503.6600,2.0000,1993.0000,1261.0000,2000.0000,-28.0000,-158.0000,-11.0000,1470.0000,-141.0000,8065.0000,0.4640,-0.5393,0.1313,-0.6904,94.8100,29.5700,-52.4700,-7.4100,15.5700,-9.1000,0.0000,0.0000,-0.0000,1265.0000,1027.0000,1500.0000,1994.0000
594520.3690,2.0000,1993.0000,1261.0000,2000.0000,-62.0000,-156.0000,-14.0000,1556.0000,-544.0000,9111.0000,0.4614,-0.5583,0.1248,-0.6782,94.6400,29.8600,-52.5700,-7.0200,15.3600,-9.2300,0.0000,0.0000,-0.0000,1265.0000,1027.0000,1500.0000,1994.0000
594537.1300,2.0000,1993.0000,1261.0000,2000.0000,-81.0000,-154.0000,-14.0000,1384.0000,-539.0000,9070.0000,0.4563,-0.5787,0.1205,-0.6652,94.4600,30.2200,-52.6800,-6.3200,15.1700,-9.3700,0.0000,0.0000,-0.0000,1265.0000,1027.0000,1500.0000,1994.0000
594553.9390,2.0000,2000.0000,1207.0000,2000.0000,-94.0000,-148.0000,-13.0000,1690.0000,-912.0000,9731.0000,0.4496,-0.5992,0.1183,-0.6518,94.4600,30.2200,-52.6800,-6.3200,15.1700,-9.3700,0.0000,0.0000,-0.0000,1313.0000,1021.0000,1500.0000,2000.0000
594570.7460,2.0000,2000.0000,1207.0000,2000.0000,-100.0000,-144.0000,-10.0000,1590.0000,-702.0000,9405.0000,0.4421,-0.6195,0.1171,-0.6380,94.3100,30.5500,-52.7900,-5.6600,14.9400,-9.4800,0.0000,0.0000,-0.0000,1313.0000,1021.0000,1500.0000,2000.0000
594587.7200,2.0000,2000.0000,1207.0000,2000.0000,-92.0000,-134.0000,-6.0000,1703.0000,-837.0000,9495.0000,0.4346,-0.6389,0.1164,-0.6240,94.1800,30.8500,-52.9100,-5.0400,14.7000,-9.5400,0.0000,0.0000,-0.0000,1313.0000,1021.0000,1500.0000,2000.0000
594604.5840,2.0000,2000.0000,1207.0000,2000.0000,-78.0000,-125.0000,-2.0000,1520.0000,-834.0000,8945.0000,0.4275,-0.6560,0.1164,-0.6110,94.0700,31.1300,-53.0300,-4.4800,14.4500,-9.5700,0.0000,0.0000,-0.0000,1313.0000,1021.0000,1500.0000,2000.0000
594621.4780,2.0000,2000.0000,1207.0000,2000.0000,-66.0000,-118.0000,4.0000,1404.0000,-923.0000,8591.0000,0.4219,-0.6713,0.1159,-0.5983,93.9800,31.4100,-53.1600,-3.9200,14.2100,-9.5600,0.0000,0.0000,-0.0000,1313.0000,1021.0000,1500.0000,2000.0000
594638.3390,2.0000,2000.0000,1207.0000,2000.0000,-53.0000,-113.0000,12.0000,1279.0000,-975.0000,8272.0000,0.4180,-0.6846,0.1155,-0.5858,93.8800,31.7400,-53.3000,-3.2400,14.0200,-9.5100,0.0000,0.0000,-0.0000,1313.0000,1021.0000,1500.0000,2000.0000
594655.3340,2.0000,2000.0000,1185.0000,2000.0000,-48.0000,-99.0000,22.0000,1141.0000,-839.0000,7501.0000,0.4157,-0.6963,0.1156,-0.5736,93.8800,31.7400,-53.3000,-3.2400,14.0200,-9.5100,0.0000,0.0000,-0.0000,1338.0000,1024.0000,1500.0000,2000.0000
594672.0670,2.0000,2000.0000,1185.0000,2000.0000,-46.0000,-98.0000,34.0000,1365.0000,-820.0000,7222.0000,0.4143,-0.7068,0.1170,-0.5614,93.8100,32.0500,-53.4300,-2.6700,13.8400,-9.4400,0.0000,0.0000,-0.0000,1338.0000,1024.0000,1500.0000,2000.0000
594688.7100,2.0000,2000.0000,1185.0000,2000.0000,-45.0000,-97.0000,41.0000,1390.0000,-785.0000,6767.0000,0.4137,-0.7165,0.1195,-0.5488,93.7400,32.3400,-53.5600,-2.2200,13.7000,-9.3300,0.0000,0.0000,-0.0000,1338.0000,1024.0000,1500.0000,2000.0000
594705.6210,2.0000,2000.0000,1185.0000,2000.0000,-43.0000,-98.0000,49.0000,1346.0000,-613.0000,6248.0000,0.4137,-0.7262,0.1226,-0.5353,93.6900,32.6000,-53.6800,-1.8600,13.6000,-9.2000,0.0000,0.0000,-0.0000,1338.0000,1024.0000,1500.0000,2000.0000
594722.4310,2.0000,2000.0000,1185.0000,2000.0000,-37.0000,-107.0000,51.0000,1540.0000,-731.0000,6525.0000,0.4145,-0.7357,0.1256,-0.5208,93.6500,32.8600,-53.8000,-1.5700,13.5100,-9.0600,0.0000,0.0000,-0.0000,1338.0000,1024.0000,1500.0000,2000.0000
594739.0900,2.0000,2000.0000,1185.0000,2000.0000,-33.0000,-109.0000,53.0000,1695.0000,-554.0000,6430.0000,0.4163,-0.7449,0.1279,-0.5055,93.6500,32.8600,-53.8000,-1.5700,13.5100,-9.0600,0.0000,0.0000,-0.0000,1338.0000,1024.0000,1500.0000,2000.0000
594756.2240,2.0000,2000.0000,1238.0000,2000.0000,-38.0000,-129.0000,53.0000,1568.0000,-543.0000,6233.0000,0.4181,-0.7547,0.1296,-0.4886,93.6100,33.0900,-53.9200,-1.3000,13.4100,-8.9100,0.0000,0.0000,-0.0000,1282.0000,1021.0000,1500.0000,2000.0000
594772.9100,2.0000,2000.0000,1238.0000,2000.0000,-46.0000,-133.0000,54.0000,1457.0000,-681.0000,6222.0000,0.4194,-0.7652,0.1311,-0.4705,93.5900,33.3000,-54.0300,-1.0800,13.3200,-8.7200,0.0000,0.0000,-0.0000,1282.0000,1021.0000,1500.0000,2000.0000
594789.7590,2.0000,2000.0000,1238.0000,2000.0000,-52.0000,-140.0000,53.0000,1397.0000,-402.0000,5921.0000,0.4197,-0.7764,0.1326,-0.4510,93.5600,33.5000,-54.1400,-0.9100,13.2100,-8.5100,0.0000,0.0000,-0.0000,1282.0000,1021.0000,1500.0000,2000.0000
594806.5460,2.0000,2000.0000,1238.0000,2000.0000,-59.0000,-147.0000,50.0000,1626.0000,-234.0000,6314.0000,0.4188,-0.7882,0.1342,-0.4306,93.5500,33.6800,-54.2500,-0.7700,13.1100,-8.2600,0.0000,0.0000,-0.0000,1282.0000,1021.0000,1500.0000,2000.0000
594823.4230,2.0000,2000.0000,1238.0000,2000.0000,-69.0000,-149.0000,46.0000,1655.0000,-300.0000,6659.0000,0.4170,-0.8004,0.1349,-0.4090,93.5300,33.8500,-54.3600,-0.6300,13.0100,-7.9900,0.0000,0.0000,-0.0000,1282.0000,1021.0000,1500.0000,2000.0000
594839.9580,2.0000,2000.0000,1238.0000,2000.0000,-65.0000,-153.0000,41.0000,1636.0000,-466.0000,6922.0000,0.4141,-0.8123,0.1353,-0.3879,93.5300,33.8500,-54.3600,-0.6300,13.0100,-7.9900,0.0000,0.0000,-0.0000,1282.0000,1021.0000,1500.0000,2000.0000
594856.7460,2.0000,2000.0000,1365.0000,2000.0000,-67.0000,-153.0000,38.0000,1607.0000,-429.0000,7037.0000,0.4114,-0.8238,0.1348,-0.3661,93.5200,34.0100,-54.4600,-0.4700,12.8600,-7.6800,0.0000,0.0000,-0.0000,1161.0000,1027.0000,1500.0000,2000.0000
594873.4780,2.0000,2000.0000,1366.0000,2000.0000,-74.0000,-155.0000,34.0000,1606.0000,-484.0000,7110.0000,0.4076,-0.8352,0.1339,-0.3441,93.5200,34.1500,-54.5600,-0.3400,12.7000,-7.3300,0.0000,0.0000,-0.0000,1161.0000,1027.0000,1500.0000,2000.0000
594890.4870,2.0000,2000.0000,1366.0000,2000.0000,-83.0000,-158.0000,32.0000,1742.0000,-523.0000,7524.0000,0.4023,-0.8469,0.1331,-0.3213,93.5100,34.2800,-54.6500,-0.2400,12.5300,-6.9500,0.0000,0.0000,-0.0000,1161.0000,1027.0000,1500.0000,2000.0000
594907.0730,2.0000,2000.0000,1366.0000,2000.0000,-91.0000,-149.0000,31.0000,1760.0000,-338.0000,7492.0000,0.3952,-0.8583,0.1328,-0.2992,93.5100,34.4000,-54.7300,-0.1400,12.3400,-6.5200,0.0000,0.0000,-0.0000,1161.0000,1027.0000,1500.0000,2000.0000
594923.5580,2.0000,2000.0000,1366.0000,2000.0000,-91.0000,-141.0000,31.0000,1739.0000,-334.0000,7415.0000,0.3877,-0.8688,0.1327,-0.2780,93.5100,34.5100,-54.8100,-0.0600,12.1900,-6.0500,0.0000,0.0000,-0.0000,1161.0000,1027.0000,1500.0000,2000.0000
594940.3930,2.0000,2000.0000,1366.0000,2000.0000,-99.0000,-133.0000,30.0000,1839.0000,-440.0000,7388.0000,0.3793,-0.8790,0.1326,-0.2566,93.5100,34.5100,-54.8100,-0.0600,12.1900,-6.0500,0.0000,0.0000,-0.0000,1161.0000,1027.0000,1500.0000,2000.0000
594957.1110,2.0000,2000.0000,1383.0000,2000.0000,-87.0000,-134.0000,33.0000,1663.0000,-412.0000,7167.0000,0.3709,-0.8884,0.1329,-0.2359,93.5100,34.6100,-54.8800,-0.0200,12.0300,-5.5500,0.0000,0.0000,-0.0000,1149.0000,1032.0000,1500.0000,2000.0000
594973.9150,2.0000,2000.0000,1383.0000,2000.0000,-86.0000,-120.0000,36.0000,1622.0000,-526.0000,7174.0000,0.3628,-0.8966,0.1337,-0.2159,93.5200,34.6900,-54.9500,-0.0100,11.8900,-5.0300,0.0000,0.0000,-0.0000,1149.0000,1032.0000,1500.0000,2000.0000
594990.9600,2.0000,2000.0000,1383.0000,2000.0000,-75.0000,-111.0000,38.0000,1642.0000,-558.0000,7361.0000,0.3552,-0.9038,0.1352,-0.1968,93.5200,34.7700,-55.0000,-0.0500,11.7600,-4.5100,0.0000,0.0000,-0.0000,1149.0000,1032.0000,1500.0000,2000.0000
595007.6660,2.0000,2000.0000,1383.0000,2000.0000,-70.0000,-88.0000,41.0000,1596.0000,-459.0000,6753.0000,0.3485,-0.9094,0.1378,-0.1805,93.5200,34.8500,-55.0500,-0.1000,11.6400,-3.9700,0.0000,0.0000,-0.0000,1149.0000,1032.0000,1500.0000,2000.0000
595024.5240,2.0000,2000.0000,1383.0000,2000.0000,-72.0000,-84.0000,44.0000,1727.0000,-569.0000,6441.0000,0.3416,-0.9144,0.1409,-0.1650,93.5200,34.9100,-55.1000,-0.1700,11.5600,-3.4400,0.0000,0.0000,-0.0000,1149.0000,1032.0000,1500.0000,2000.0000
595041.0820,2.0000,2000.0000,1383.0000,2000.0000,-70.0000,-77.0000,47.0000,1526.0000,-384.0000,5398.0000,0.3350,-0.9188,0.1445,-0.1507,93.5200,34.9100,-55.1000,-0.1700,11.5600,-3.4400,0.0000,0.0000,-0.0000,1149.0000,1032.0000,1500.0000,2000.0000
595057.9130,2.0000,2000.0000,1310.0000,2000.0000,-70.0000,-77.0000,49.0000,1680.0000,-557.0000,5584.0000,0.3280,-0.9227,0.1489,-0.1370,93.5100,34.9700,-55.1400,-0.2900,11.5400,-2.9700,0.0000,0.0000,-0.0000,1223.0000,1033.0000,1500.0000,2000.0000
595074.7530,2.0000,2000.0000,1310.0000,2000.0000,-67.0000,-80.0000,49.0000,1489.0000,-421.0000,4846.0000,0.3214,-0.9265,0.1528,-0.1221,93.5100,35.0300,-55.1700,-0.4100,11.5400,-2.5200,0.0000,0.0000,-0.0000,1223.0000,1033.0000,1500.0000,2000.0000
595091.6330,2.0000,2000.0000,1310.0000,2000.0000,-71.0000,-84.0000,46.0000,1578.0000,-254.0000,4746.0000,0.3146,-0.9301,0.1565,-0.1068,93.5000,35.0800,-55.2000,-0.5600,11.5700,-2.0800,0.0000,0.0000,-0.0000,1223.0000,1033.0000,1500.0000,2000.0000
595108.5130,2.0000,2000.0000,1310.0000,2000.0000,-71.0000,-93.0000,39.0000,1857.0000,-163.0000,4872.0000,0.3076,-0.9336,0.1594,-0.0912,93.4900,35.1300,-55.2200,-0.7000,11.6100,-1.6400,0.0000,0.0000,-0.0000,1223.0000,1033.0000,1500.0000,2000.0000
595125.3550,2.0000,2000.0000,1310.0000,2000.0000,-74.0000,-110.0000,31.0000,1660.0000,-117.0000,4418.0000,0.3006,-0.9373,0.1603,-0.0737,93.5900,35.3400,-55.2700,0.2600,11.4100,-1.2000,0.0000,0.0000,-0.0000,1223.0000,1033.0000,1500.0000,2000.0000
595142.3980,2.0000,2000.0000,1000.0000,1465.0000,-84.0000,-120.0000,25.0000,1506.0000,-140.0000,4362.0000,0.2927,-0.9412,0.1596,-0.0546,93.5900,35.3400,-55.2700,0.2600,11.4100,-1.2000,0.0000,0.0000,-0.0000,1970.0000,1067.0000,1500.0000,2000.0000
595159.4410,2.0000,2000.0000,1000.0000,1464.0000,-91.0000,-140.0000,16.0000,1395.0000,-309.0000,4597.0000,0.2833,-0.9455,0.1570,-0.0329,93.8500,35.7400,-55.3600,2.3900,10.9100,-0.8000,0.0000,0.0000,-0.0000,1970.0000,1067.0000,1500.0000,2000.0000
595176.3300,2.0000,2000.0000,1000.0000,1464.0000,-84.0000,-147.0000,6.0000,1519.0000,-145.0000,4822.0000,0.2742,-0.9494,0.1525,-0.0101,94.1300,36.1000,-55.4300,4.1900,10.4300,-0.3800,0.0000,0.0000,-0.0000,1970.0000,1067.0000,1500.0000,2000.0000
595193.5940,2.0000,2000.0000,1000.0000,1464.0000,-51.0000,-168.0000,-10.0000,1445.0000,-221.0000,4927.0000,0.2683,-0.9522,0.1452,0.0147,94.4200,36.4300,-55.4900,5.7300,9.9800,0.0800,0.0000,0.0000,-0.0000,1970.0000,1067.0000,1500.0000,2000.0000
595210.6610,2.0000,2000.0000,1000.0000,1464.0000,-12.0000,-174.0000,-24.0000,1352.0000,-192.0000,5041.0000,0.2674,-0.9532,0.1358,0.0390,94.7300,36.7400,-55.5500,7.0500,9.5500,0.5700,0.0000,0.0000,-0.0000,1970.0000,1067.0000,1500.0000,2000.0000
595227.6300,2.0000,2000.0000,1000.0000,1464.0000,23.0000,-161.0000,-35.0000,1432.0000,-307.0000,5707.0000,0.2718,-0.9523,0.1248,0.0616,95.0800,37.0300,-55.6000,8.3100,9.1200,1.0800,0.0000,0.0000,-0.0000,1970.0000,1067.0000,1500.0000,2000.0000
595244.4580,2.0000,2000.0000,1000.0000,1464.0000,54.0000,-151.0000,-44.0000,1860.0000,-684.0000,7107.0000,0.2803,-0.9497,0.1134,0.0811,95.0800,37.0300,-55.6000,8.3100,9.1200,1.0800,0.0000,0.0000,-0.0000,1970.0000,1067.0000,1500.0000,2000.0000
595261.5790,2.0000,1998.0000,1717.0000,1707.0000,82.0000,-136.0000,-49.0000,1780.0000,-899.0000,7160.0000,0.2929,-0.9456,0.1020,0.0977,95.4900,37.3200,-55.6500,9.5700,8.6100,1.7000,0.0000,0.0000,-0.0000,1286.0000,1508.0000,1500.0000,1999.0000
595278.4850,2.0000,1998.0000,1719.0000,1707.0000,99.0000,-123.0000,-52.0000,1583.0000,-678.0000,6547.0000,0.3083,-0.9403,0.0911,0.1118,95.8900,37.5800,-55.6800,10.6300,8.0800,2.3400,0.0000,0.0000,-0.0000,1286.0000,1508.0000,1500.0000,1999.0000
595295.4780,2.0000,1998.0000,1719.0000,1707.0000,97.0000,-119.0000,-52.0000,1753.0000,-577.0000,6556.0000,0.3247,-0.9341,0.0805,0.1245,96.2900,37.8200,-55.7000,11.5000,7.6000,2.9300,0.0000,0.0000,-0.0000,1286.0000,1508.0000,1500.0000,1999.0000
595312.4200,2.0000,1998.0000,1719.0000,1707.0000,62.0000,-108.0000,-46.0000,2170.0000,-554.0000,6930.0000,0.3380,-0.9285,0.0698,0.1367,96.6800,38.0400,-55.7000,12.2300,7.1500,3.5100,0.0000,0.0000,-0.0000,1286.0000,1508.0000,1500.0000,1999.0000
595329.1940,2.0000,1998.0000,1719.0000,1707.0000,25.0000,-105.0000,-40.0000,1825.0000,-649.0000,6270.0000,0.3458,-0.9245,0.0598,0.1485,97.1100,38.2500,-55.7000,12.9300,6.6800,4.0800,0.0000,0.0000,-0.0000,1286.0000,1508.0000,1500.0000,1999.0000
595345.9030,2.0000,1494.0000,2000.0000,1560.0000,-16.0000,-90.0000,-29.0000,1650.0000,-865.0000,6322.0000,0.3482,-0.9224,0.0509,0.1595,97.1100,38.2500,-55.7000,12.9300,6.6800,4.0800,0.0000,0.0000,-0.0000,1074.0000,1874.0000,1500.0000,1499.0000
595362.5710,2.0000,1470.0000,2000.0000,1553.0000,-60.0000,-66.0000,-17.0000,1730.0000,-1177.0000,6721.0000,0.3442,-0.9225,0.0435,0.1690,97.5800,38.4600,-55.6900,13.5300,6.2300,4.6000,0.0000,0.0000,-0.0000,1074.0000,1874.0000,1500.0000,1499.0000
595379.4470,2.0000,1470.0000,2000.0000,1553.0000,-115.0000,-26.0000,-5.0000,1294.0000,-833.0000,6616.0000,0.3329,-0.9258,0.0379,0.1751,98.0200,38.6400,-55.6600,14.0100,5.7800,5.1400,0.0000,0.0000,-0.0000,1074.0000,1874.0000,1500.0000,1499.0000
595396.2370,2.0000,1470.0000,2000.0000,1553.0000,-170.0000,23.0000,2.0000,807.0000,-799.0000,6096.0000,0.3134,-0.9326,0.0344,0.1759,98.4500,38.8100,-55.6300,14.3500,5.4000,5.6800,0.0000,0.0000,-0.0000,1074.0000,1874.0000,1500.0000,1499.0000
595413.0550,2.0000,1470.0000,2000.0000,1553.0000,-218.0000,66.0000,10.0000,484.0000,-619.0000,5028.0000,0.2862,-0.9423,0.0325,0.1707,98.8400,38.9500,-55.5800,14.5800,5.1400,6.1300,0.0000,0.0000,-0.0000,1074.0000,1874.0000,1500.0000,1499.0000
595429.8000,2.0000,1470.0000,2000.0000,1553.0000,-252.0000,101.0000,17.0000,358.0000,-543.0000,3240.0000,0.2529,-0.9535,0.0320,0.1606,99.2700,39.1000,-55.5300,14.7900,4.9300,6.4900,0.0000,0.0000,-0.0000,1074.0000,1874.0000,1500.0000,1499.0000
595446.6550,2.0000,1998.0000,1147.0000,1000.0000,-283.0000,144.0000,25.0000,250.0000,-352.0000,972.0000,0.2140,-0.9654,0.0331,0.1450,99.2700,39.1000,-55.5300,14.7900,4.9300,6.4900,0.0000,0.0000,-0.0000,1980.0000,1625.0000,1500.0000,2000.0000
595463.3520,2.0000,2000.0000,1144.0000,1000.0000,-299.0000,173.0000,31.0000,190.0000,-167.0000,-1285.0000,0.1713,-0.9766,0.0356,0.1247,99.6900,39.2500,-55.4700,14.9800,4.8200,6.6700,0.0000,0.0000,-0.0000,1980.0000,1625.0000,1500.0000,2000.0000
595479.9020,2.0000,2000.0000,1144.0000,1000.0000,-280.0000,186.0000,30.0000,350.0000,-24.0000,-3529.0000,0.1279,-0.9858,0.0388,0.1013,100.0900,39.3800,-55.4000,15.1800,4.8300,6.5800,0.0000,0.0000,-0.0000,1980.0000,1625.0000,1500.0000,2000.0000
595496.8520,2.0000,2000.0000,1144.0000,1000.0000,-212.0000,182.0000,30.0000,799.0000,-108.0000,-5400.0000,0.0898,-0.9921,0.0426,0.0765,100.4600,39.5000,-55.3500,15.3900,4.9100,6.2000,0.0000,0.0000,-0.0000,1980.0000,1625.0000,1500.0000,2000.0000
595513.5570,2.0000,2000.0000,1144.0000,1000.0000,-98.0000,168.0000,24.0000,972.0000,56.0000,-6941.0000,0.0655,-0.9954,0.0470,0.0518,100.8400,39.6300,-55.3500,15.6300,4.9900,5.4500,0.0000,0.0000,-0.0000,1980.0000,1625.0000,1500.0000,2000.0000
595530.4290,2.0000,2000.0000,1144.0000,1000.0000,37.0000,122.0000,9.0000,1025.0000,-57.0000,-8140.0000,0.0603,-0.9964,0.0504,0.0310,100.8400,39.6300,-55.3500,15.6300,4.9900,5.4500,0.0000,0.0000,-0.0000,1980.0000,1625.0000,1500.0000,2000.0000
595547.1080,2.0000,2000.0000,1144.0000,1000.0000,148.0000,63.0000,-14.0000,867.0000,432.0000,-9121.0000,0.0734,-0.9959,0.0509,0.0167,101.2500,39.7600,-55.3800,15.9000,4.9700,4.5200,0.0000,0.0000,-0.0000,1980.0000,1625.0000,1500.0000,2000.0000
595564.2770,2.0000,1998.0000,2000.0000,1526.0000,248.0000,-18.0000,-39.0000,787.0000,698.0000,-8434.0000,0.1028,-0.9935,0.0475,0.0115,101.6800,39.8900,-55.4500,16.1300,4.9600,3.4900,0.0000,0.0000,-0.0000,1184.0000,1791.0000,1500.0000,1999.0000
595581.1240,2.0000,1998.0000,2000.0000,1526.0000,315.0000,-66.0000,-55.0000,641.0000,538.0000,-7065.0000,0.1449,-0.9885,0.0402,0.0158,102.0900,40.0200,-55.5500,16.2900,5.0200,2.5900,0.0000,0.0000,-0.0000,1184.0000,1791.0000,1500.0000,1999.0000
595597.9140,2.0000,1998.0000,2000.0000,1526.0000,343.0000,-106.0000,-63.0000,896.0000,207.0000,-4753.0000,0.1941,-0.9802,0.0303,0.0254,102.4700,40.1400,-55.7000,16.4000,5.0600,1.8800,0.0000,0.0000,-0.0000,1184.0000,1791.0000,1500.0000,1999.0000
595614.5940,2.0000,1998.0000,2000.0000,1526.0000,317.0000,-119.0000,-64.0000,1313.0000,215.0000,-2331.0000,0.2423,-0.9693,0.0192,0.0384,102.9200,40.2700,-55.8700,16.6000,5.0100,1.4500,0.0000,0.0000,-0.0000,1184.0000,1791.0000,1500.0000,1999.0000
595631.3810,2.0000,1998.0000,2000.0000,1526.0000,247.0000,-113.0000,-55.0000,1416.0000,-222.0000,-594.0000,0.2831,-0.9577,0.0085,0.0518,102.9200,40.2700,-55.8700,16.6000,5.0100,1.4500,0.0000,0.0000,-0.0000,1184.0000,1791.0000,1500.0000,1999.0000
595648.4030,2.0000,1998.0000,2000.0000,1526.0000,142.0000,-88.0000,-35.0000,1030.0000,-746.0000,772.0000,0.3113,-0.9482,0.0000,0.0632,103.3800,40.4000,-56.0500,16.8400,4.8500,1.4400,0.0000,0.0000,-0.0000,1184.0000,1791.0000,1500.0000,1999.0000
595665.2680,2.0000,1560.0000,2000.0000,1628.0000,32.0000,-40.0000,-14.0000,920.0000,-789.0000,1962.0000,0.3230,-0.9437,-0.0046,0.0705,103.8100,40.5200,-56.2100,16.9800,4.5800,1.6100,0.0000,0.0000,-0.0000,1060.0000,1813.0000,1500.0000,1584.0000
595682.0760,2.0000,1560.0000,2000.0000,1628.0000,-58.0000,12.0000,12.0000,813.0000,-1228.0000,2325.0000,0.3206,-0.9445,-0.0046,0.0718,104.2100,40.6200,-56.3400,17.0400,4.2500,1.9800,0.0000,0.0000,-0.0000,1060.0000,1813.0000,1500.0000,1584.0000
595699.1260,2.0000,1560.0000,2000.0000,1628.0000,-148.0000,51.0000,33.0000,941.0000,-1494.0000,1410.0000,0.3058,-0.9496,-0.0007,0.0684,104.5900,40.7100,-56.4500,17.0500,3.8800,2.4000,0.0000,0.0000,-0.0000,1060.0000,1813.0000,1500.0000,1584.0000
595716.2000,2.0000,1560.0000,2000.0000,1628.0000,-216.0000,87.0000,52.0000,488.0000,-1074.0000,-574.0000,0.2796,-0.9582,0.0065,0.0599,105.0100,40.8000,-56.5400,17.0900,3.5700,2.7000,0.0000,0.0000,-0.0000,1060.0000,1813.0000,1500.0000,1584.0000
595732.8640,2.0000,1560.0000,2000.0000,1628.0000,-264.0000,107.0000,65.0000,126.0000,-637.0000,-2891.0000,0.2454,-0.9681,0.0162,0.0478,105.0100,40.8000,-56.5400,17.0900,3.5700,2.7000,0.0000,0.0000,-0.0000,1060.0000,1813.0000,1500.0000,1584.0000
595749.6530,2.0000,1960.0000,1264.0000,1000.0000,-297.0000,103.0000,74.0000,168.0000,-349.0000,-4420.0000,0.2043,-0.9779,0.0275,0.0358,105.4500,40.8800,-56.6100,17.0900,3.4200,2.6700,0.0000,0.0000,-0.0000,1970.0000,1636.0000,1500.0000,2000.0000
595766.2680,2.0000,2000.0000,1165.0000,1000.0000,-320.0000,85.0000,75.0000,64.0000,10.0000,-5608.0000,0.1594,-0.9861,0.0384,0.0262,105.8500,40.9600,-56.6900,17.0500,3.4000,2.3700,0.0000,0.0000,-0.0000,1970.0000,1636.0000,1500.0000,2000.0000
595783.1220,2.0000,2000.0000,1165.0000,1000.0000,-341.0000,54.0000,72.0000,275.0000,-23.0000,-5313.0000,0.1102,-0.9925,0.0484,0.0200,106.2300,41.0300,-56.7800,16.9800,3.4200,1.8700,0.0000,0.0000,-0.0000,1970.0000,1636.0000,1500.0000,2000.0000
595800.1620,2.0000,2000.0000,1165.0000,1000.0000,-332.0000,38.0000,66.0000,651.0000,-69.0000,-4461.0000,0.0592,-0.9964,0.0579,0.0168,106.5700,41.1000,-56.9000,16.9100,3.3800,1.2600,0.0000,0.0000,-0.0000,1970.0000,1636.0000,1500.0000,2000.0000
595817.1320,2.0000,2000.0000,1165.0000,1000.0000,-270.0000,33.0000,57.0000,889.0000,66.0000,-4144.0000,0.0137,-0.9976,0.0659,0.0149,106.9600,41.1700,-57.0300,16.9100,3.2800,0.7900,0.0000,0.0000,-0.0000,1970.0000,1636.0000,1500.0000,2000.0000
595833.8820,2.0000,2000.0000,1165.0000,1000.0000,-153.0000,35.0000,45.0000,729.0000,124.0000,-3831.0000,-0.0184,-0.9971,0.0722,0.0124,106.9600,41.1700,-57.0300,16.9100,3.2800,0.7900,0.0000,0.0000,-0.0000,1970.0000,1636.0000,1500.0000,2000.0000
595850.8790,2.0000,2000.0000,1000.0000,1087.0000,0.0000,34.0000,21.0000,503.0000,498.0000,-3991.0000,-0.0302,-0.9966,0.0761,0.0076,107.3600,41.2400,-57.1700,16.9300,3.1600,0.4400,0.0000,0.0000,-0.0000,1959.0000,1454.0000,1500.0000,2000.0000
595867.9860,2.0000,2000.0000,1000.0000,1087.0000,132.0000,30.0000,-14.0000,457.0000,1143.0000,-4928.0000,-0.0209,-0.9969,0.0757,0.0014,107.7400,41.3000,-57.3200,16.8900,3.0600,0.0900,0.0000,0.0000,-0.0000,1959.0000,1454.0000,1500.0000,2000.0000
595884.7460,2.0000,2000.0000,1000.0000,1087.0000,250.0000,7.0000,-46.0000,153.0000,1449.0000,-5837.0000,0.0076,-0.9975,0.0704,-0.0032,108.0900,41.3600,-57.4700,16.8000,3.0300,-0.3100,0.0000,0.0000,-0.0000,1959.0000,1454.0000,1500.0000,2000.0000
595901.6380,2.0000,2000.0000,1000.0000,1087.0000,333.0000,-39.0000,-71.0000,-160.0000,1290.0000,-6547.0000,0.0512,-0.9968,0.0612,-0.0041,108.4100,41.4100,-57.6400,16.6600,3.0500,-0.7700,0.0000,0.0000,-0.0000,1959.0000,1454.0000,1500.0000,2000.0000
595918.4820,2.0000,2000.0000,1000.0000,1087.0000,395.0000,-72.0000,-91.0000,-10.0000,1206.0000,-5807.0000,0.1050,-0.9933,0.0486,0.0004,108.7900,41.4800,-57.8000,16.5900,3.1100,-1.2500,0.0000,0.0000,-0.0000,1959.0000,1454.0000,1500.0000,2000.0000
595935.1600,2.0000,2000.0000,1000.0000,1087.0000,442.0000,-93.0000,-103.0000,350.0000,739.0000,-3769.0000,0.1662,-0.9855,0.0337,0.0077,108.7900,41.4800,-57.8000,16.5900,3.1100,-1.2500,0.0000,0.0000,-0.0000,1959.0000,1454.0000,1500.0000,2000.0000
595952.1510,2.0000,1683.0000,2000.0000,1581.0000,470.0000,-108.0000,-105.0000,382.0000,343.0000,-1859.0000,0.2332,-0.9721,0.0171,0.0171,109.1700,41.5400,-57.9700,16.5600,3.1800,-1.5600,0.0000,0.0000,-0.0000,1055.0000,1865.0000,1500.0000,1701.0000
595968.9610,2.0000,1683.0000,2000.0000,1581.0000,497.0000,-105.0000,-98.0000,350.0000,-261.0000,-82.0000,0.3020,-0.9529,0.0010,0.0276,109.5200,41.6000,-58.1300,16.5400,3.1500,-1.5000,0.0000,0.0000,-0.0000,1055.0000,1865.0000,1500.0000,1701.0000
595985.6700,2.0000,1683.0000,2000.0000,1581.0000,472.0000,-92.0000,-84.0000,574.0000,-458.0000,1775.0000,0.3693,-0.9285,-0.0129,0.0369,109.8600,41.6600,-58.2700,16.5100,2.9900,-1.2000,0.0000,0.0000,-0.0000,1055.0000,1865.0000,1500.0000,1701.0000
596002.7810,2.0000,1683.0000,2000.0000,1581.0000,406.0000,-70.0000,-61.0000,549.0000,-400.0000,2984.0000,0.4296,-0.9016,-0.0248,0.0443,110.1600,41.7100,-58.3900,16.4500,2.7100,-0.7100,0.0000,0.0000,-0.0000,1055.0000,1865.0000,1500.0000,1701.0000
596019.5450,2.0000,1683.0000,2000.0000,1581.0000,301.0000,-53.0000,-31.0000,896.0000,-1010.0000,3736.0000,0.4756,-0.8776,-0.0323,0.0506,110.5300,41.7500,-58.4600,16.5200,2.3400,-0.1000,0.0000,0.0000,-0.0000,1055.0000,1865.0000,1500.0000,1701.0000
596036.3210,2.0000,1902.0000,2000.0000,1594.0000,174.0000,-39.0000,10.0000,736.0000,-1569.0000,3958.0000,0.5053,-0.8603,-0.0350,0.0569,110.5300,41.7500,-58.4600,16.5200,2.3400,-0.1000,0.0000,0.0000,-0.0000,1036.0000,1866.0000,1500.0000,2000.0000
596053.0850,2.0000,2000.0000,2000.0000,1599.0000,39.0000,2.0000,36.0000,396.0000,-1291.0000,4323.0000,0.5180,-0.8526,-0.0318,0.0614,110.9000,41.7900,-58.5000,16.5800,1.9200,0.4200,0.0000,0.0000,-0.0000,1036.0000,1866.0000,1500.0000,2000.0000
596070.0500,2.0000,2000.0000,2000.0000,1599.0000,-78.0000,42.0000,64.0000,271.0000,-1125.0000,4181.0000,0.5148,-0.8548,-0.0233,0.0619,111.2400,41.8200,-58.5200,16.5800,1.5200,0.8900,0.0000,0.0000,-0.0000,1036.0000,1866.0000,1500.0000,2000.0000
596086.8540,2.0000,2000.0000,2000.0000,1599.0000,-174.0000,78.0000,87.0000,611.0000,-1134.0000,2703.0000,0.4980,-0.8651,-0.0099,0.0592,111.5600,41.8400,-58.5100,16.5400,1.1800,1.3400,0.0000,0.0000,-0.0000,1036.0000,1866.0000,1500.0000,2000.0000
596104.0840,2.0000,2000.0000,2000.0000,1599.0000,-248.0000,118.0000,105.0000,993.0000,-776.0000,349.0000,0.4692,-0.8814,0.0079,0.0535,111.8700,41.8600,-58.4800,16.5500,1.0200,1.7000,0.0000,0.0000,-0.0000,1036.0000,1866.0000,1500.0000,2000.0000
596120.9490,2.0000,2000.0000,2000.0000,1599.0000,-290.0000,136.0000,121.0000,730.0000,-515.0000,-1997.0000,0.4323,-0.9001,0.0290,0.0450,112.2400,41.8800,-58.4400,16.7600,1.0900,1.9000,0.0000,0.0000,-0.0000,1036.0000,1866.0000,1500.0000,2000.0000
596137.4500,2.0000,2000.0000,2000.0000,1599.0000,-320.0000,141.0000,124.0000,451.0000,-120.0000,-4307.0000,0.3904,-0.9185,0.0511,0.0358,112.2400,41.8800,-58.4400,16.7600,1.0900,1.9000,0.0000,0.0000,-0.0000,1036.0000,1866.0000,1500.0000,2000.0000
596154.0590,2.0000,1949.0000,1156.0000,1000.0000,-332.0000,119.0000,122.0000,439.0000,50.0000,-6151.0000,0.3449,-0.9354,0.0718,0.0286,112.6200,41.9100,-58.4000,16.9400,1.3600,1.8200,0.0000,0.0000,-0.0000,1982.0000,1638.0000,1500.0000,1953.0000
596170.7350,2.0000,1949.0000,1155.0000,1000.0000,-336.0000,90.0000,114.0000,800.0000,495.0000,-6818.0000,0.2973,-0.9502,0.0904,0.0246,112.9800,41.9400,-58.3800,17.0600,1.7500,1.3900,0.0000,0.0000,-0.0000,1982.0000,1638.0000,1500.0000,1953.0000
596187.9320,2.0000,1949.0000,1155.0000,1000.0000,-296.0000,69.0000,102.0000,897.0000,587.0000,-6196.0000,0.2499,-0.9621,0.1066,0.0227,113.3100,41.9800,-58.3900,17.1500,2.1300,0.8200,0.0000,0.0000,-0.0000,1982.0000,1638.0000,1500.0000,1953.0000
596204.9180,2.0000,1949.0000,1155.0000,1000.0000,-195.0000,57.0000,86.0000,946.0000,472.0000,-5510.0000,0.2130,-0.9693,0.1208,0.0213,113.6300,42.0200,-58.4200,17.2200,2.3900,0.2900,0.0000,0.0000,-0.0000,1982.0000,1638.0000,1500.0000,1953.0000
596221.4320,2.0000,1949.0000,1155.0000,1000.0000,-62.0000,50.0000,60.0000,759.0000,685.0000,-5020.0000,0.1940,-0.9720,0.1317,0.0178,114.0100,42.0700,-58.4700,17.4100,2.4500,-0.1200,0.0000,0.0000,-0.0000,1982.0000,1638.0000,1500.0000,1953.0000
596238.1850,2.0000,1949.0000,1155.0000,1000.0000,93.0000,35.0000,18.0000,802.0000,1463.0000,-5542.0000,0.1959,-0.9708,0.1376,0.0127,114.0100,42.0700,-58.4700,17.4100,2.4500,-0.1200,0.0000,0.0000,-0.0000,1982.0000,1638.0000,1500.0000,1953.0000
596255.0110,2.0000,1000.0000,1518.0000,1000.0000,221.0000,2.0000,-20.0000,699.0000,1330.0000,-6329.0000,0.2186,-0.9661,0.1370,0.0068,114.4000,42.1100,-58.5300,17.5600,2.5100,-0.4500,0.0000,0.0000,-0.0000,1922.0000,1940.0000,1500.0000,1009.0000
596271.6250,2.0000,1000.0000,1518.0000,1000.0000,307.0000,-8.0000,-40.0000,479.0000,1166.0000,-6003.0000,0.2563,-0.9576,0.1318,0.0013,114.7700,42.1600,-58.5900,17.6300,2.6300,-0.8100,0.0000,0.0000,-0.0000,1922.0000,1940.0000,1500.0000,1009.0000
596288.4210,2.0000,1000.0000,1518.0000,1000.0000,358.0000,-23.0000,-55.0000,-172.0000,1218.0000,-4704.0000,0.3032,-0.9448,0.1238,-0.0045,115.1200,42.2100,-58.6700,17.6500,2.7500,-1.1900,0.0000,0.0000,-0.0000,1922.0000,1940.0000,1500.0000,1009.0000
596305.4000,2.0000,1000.0000,1518.0000,1000.0000,364.0000,-19.0000,-57.0000,-490.0000,878.0000,-3367.0000,0.3540,-0.9283,0.1136,-0.0101,115.4400,42.2500,-58.7600,17.5900,2.7900,-1.3600,0.0000,0.0000,-0.0000,1922.0000,1940.0000,1500.0000,1009.0000
596322.1310,2.0000,1000.0000,1518.0000,1000.0000,353.0000,-9.0000,-52.0000,-482.0000,572.0000,-3154.0000,0.4023,-0.9094,0.1044,-0.0167,115.8400,42.3000,-58.8500,17.5900,2.8100,-1.3600,0.0000,0.0000,-0.0000,1922.0000,1940.0000,1500.0000,1009.0000
596338.9210,2.0000,1000.0000,1518.0000,1000.0000,351.0000,-3.0000,-42.0000,-537.0000,212.0000,-2612.0000,0.4485,-0.8882,0.0966,-0.0239,115.8400,42.3000,-58.8500,17.5900,2.8100,-1.3600,0.0000,0.0000,-0.0000,1922.0000,1940.0000,1500.0000,1009.0000
596356.2560,2.0000,1969.0000,1534.0000,2000.0000,347.0000,7.0000,-30.0000,-693.0000,-64.0000,-2139.0000,0.4946,-0.8638,0.0906,-0.0318,116.2200,42.3500,-58.9200,17.5700,2.8500,-1.3500,0.0000,0.0000,-0.0000,1005.0000,1039.0000,1500.0000,1972.0000
596372.8640,2.0000,1969.0000,1534.0000,2000.0000,335.0000,23.0000,-14.0000,-645.0000,-113.0000,-1866.0000,0.5363,-0.8385,0.0875,-0.0399,116.5800,42.4000,-58.9800,17.5200,2.8700,-1.3100,0.0000,0.0000,-0.0000,1005.0000,1039.0000,1500.0000,1972.0000
596389.9530,2.0000,1969.0000,1534.0000,2000.0000,287.0000,35.0000,-1.0000,-395.0000,-101.0000,-2086.0000,0.5744,-0.8124,0.0874,-0.0484,116.9300,42.4500,-59.0400,17.4500,2.8800,-1.2000,0.0000,0.0000,-0.0000,1005.0000,1039.0000,1500.0000,1972.0000
596406.8780,2.0000,1969.0000,1534.0000,2000.0000,218.0000,39.0000,15.0000,248.0000,-254.0000,-2536.0000,0.6039,-0.7902,0.0891,-0.0552,117.2600,42.5000,-59.0900,17.4000,2.9400,-1.0600,0.0000,0.0000,-0.0000,1005.0000,1039.0000,1500.0000,1972.0000
596423.9340,2.0000,1969.0000,1534.0000,2000.0000,132.0000,19.0000,30.0000,575.0000,-310.0000,-3449.0000,0.6239,-0.7738,0.0926,-0.0588,117.6400,42.5500,-59.1300,17.4400,3.1000,-0.9300,0.0000,0.0000,-0.0000,1005.0000,1039.0000,1500.0000,1972.0000
596440.6290,2.0000,1969.0000,1534.0000,2000.0000,39.0000,-25.0000,51.0000,893.0000,-662.0000,-4068.0000,0.6337,-0.7655,0.0963,-0.0560,117.6400,42.5500,-59.1300,17.4400,3.1000,-0.9300,0.0000,0.0000,-0.0000,1005.0000,1039.0000,1500.0000,1972.0000
596457.3290,2.0000,1000.0000,1422.0000,2000.0000,-46.0000,-58.0000,74.0000,1215.0000,-950.0000,-3861.0000,0.6338,-0.7658,0.0989,-0.0452,118.0100,42.6100,-59.1600,17.4900,3.3600,-0.7900,0.0000,0.0000,-0.0000,1132.0000,1054.0000,1500.0000,1055.0000
596473.9800,2.0000,1000.0000,1422.0000,2000.0000,-101.0000,-93.0000,94.0000,1199.0000,-1123.0000,-2786.0000,0.6267,-0.7721,0.1016,-0.0276,118.3700,42.6700,-59.1900,17.5600,3.6000,-0.6700,0.0000,0.0000,-0.0000,1132.0000,1054.0000,1500.0000,1055.0000
596491.0440,2.0000,1000.0000,1422.0000,2000.0000,-132.0000,-130.0000,110.0000,563.0000,-1073.0000,-1090.0000,0.6149,-0.7819,0.1030,-0.0032,118.7300,42.7300,-59.2100,17.6500,3.7200,-0.5400,0.0000,0.0000,-0.0000,1132.0000,1054.0000,1500.0000,1055.0000
596507.6530,2.0000,1000.0000,1422.0000,2000.0000,-133.0000,-153.0000,120.0000,-71.0000,-681.0000,636.0000,0.6014,-0.7918,0.1029,0.0259,119.0600,42.7900,-59.2200,17.7000,3.6200,-0.3000,0.0000,0.0000,-0.0000,1132.0000,1054.0000,1500.0000,1055.0000
596524.1860,2.0000,1000.0000,1422.0000,2000.0000,-128.0000,-173.0000,125.0000,-405.0000,-334.0000,2521.0000,0.5882,-0.8003,0.1017,0.0576,119.4500,42.8500,-59.2100,17.7300,3.4000,-0.0000,0.0000,0.0000,-0.0000,1132.0000,1054.0000,1500.0000,1055.0000
596541.0950,2.0000,1000.0000,1000.0000,1700.0000,-125.0000,-189.0000,122.0000,-596.0000,-209.0000,4148.0000,0.5745,-0.8073,0.0990,0.0920,119.4500,42.8500,-59.2100,17.7300,3.4000,-0.0000,0.0000,0.0000,-0.0000,1755.0000,1076.0000,1500.0000,1000.0000
596558.0570,2.0000,1000.0000,1000.0000,1670.0000,-130.0000,-197.0000,116.0000,-557.0000,-98.0000,5386.0000,0.5600,-0.8132,0.0945,0.1273,119.8200,42.9100,-59.1900,17.7000,3.0100,0.4000,0.0000,0.0000,-0.0000,1755.0000,1076.0000,1500.0000,1000.0000
596574.9330,2.0000,1000.0000,1000.0000,1670.0000,-122.0000,-205.0000,105.0000,-417.0000,-47.0000,6381.0000,0.5447,-0.8180,0.0883,0.1624,120.1800,42.9500,-59.1500,17.6200,2.5200,0.8400,0.0000,0.0000,-0.0000,1755.0000,1076.0000,1500.0000,1000.0000
596591.7520,2.0000,1000.0000,1000.0000,1670.0000,-85.0000,-211.0000,86.0000,-297.0000,-51.0000,7677.0000,0.5319,-0.8198,0.0802,0.1964,120.5300,42.9900,-59.1000,17.4900,1.9500,1.3400,0.0000,0.0000,-0.0000,1755.0000,1076.0000,1500.0000,1000.0000
596608.6460,2.0000,1000.0000,1000.0000,1670.0000,-55.0000,-204.0000,61.0000,-230.0000,-21.0000,8499.0000,0.5235,-0.8179,0.0706,0.2279,120.8700,43.0100,-59.0300,17.2800,1.3100,1.8600,0.0000,0.0000,-0.0000,1755.0000,1076.0000,1500.0000,1000.0000
596625.6010,2.0000,1000.0000,1000.0000,1670.0000,-29.0000,-198.0000,39.0000,-160.0000,-5.0000,8946.0000,0.5186,-0.8135,0.0597,0.2563,121.2300,43.0300,-58.9500,17.0600,0.7300,2.3900,0.0000,0.0000,-0.0000,1755.0000,1076.0000,1500.0000,1000.0000
596642.3400,2.0000,1205.0000,1153.0000,1537.0000,-20.0000,-189.0000,18.0000,-137.0000,-69.0000,9287.0000,0.5162,-0.8075,0.0477,0.2815,121.2300,43.0300,-58.9500,17.0600,0.7300,2.3900,0.0000,0.0000,-0.0000,1657.0000,1307.0000,1500.0000,1249.0000
596659.2460,2.0000,1206.0000,1153.0000,1537.0000,-4.0000,-172.0000,-2.0000,-172.0000,-102.0000,9661.0000,0.5157,-0.8005,0.0347,0.3034,121.5900,43.0400,-58.8600,16.7800,0.1500,2.9100,0.0000,0.0000,-0.0000,1657.0000,1307.0000,1500.0000,1249.0000
596676.2240,2.0000,1206.0000,1153.0000,1537.0000,0.0000,-140.0000,-16.0000,-295.0000,-154.0000,9881.0000,0.5167,-0.7934,0.0219,0.3209,121.9300,43.0300,-58.7600,16.4300,-0.4200,3.4000,0.0000,0.0000,-0.0000,1657.0000,1307.0000,1500.0000,1249.0000
596693.3920,2.0000,1206.0000,1153.0000,1537.0000,10.0000,-104.0000,-25.0000,-402.0000,-325.0000,9603.0000,0.5185,-0.7873,0.0107,0.3333,122.2500,43.0200,-58.6500,16.0300,-0.9900,3.8500,0.0000,0.0000,-0.0000,1657.0000,1307.0000,1500.0000,1249.0000
596710.6570,2.0000,1206.0000,1153.0000,1537.0000,21.0000,-67.0000,-31.0000,-483.0000,-367.0000,8723.0000,0.5221,-0.7818,0.0019,0.3409,122.5600,42.9900,-58.5300,15.6300,-1.5000,4.2300,0.0000,0.0000,-0.0000,1657.0000,1307.0000,1500.0000,1249.0000
596727.4420,2.0000,1206.0000,1153.0000,1537.0000,30.0000,-34.0000,-32.0000,-559.0000,-357.0000,7603.0000,0.5266,-0.7775,-0.0040,0.3438,122.8900,42.9700,-58.4000,15.2900,-1.9400,4.5600,0.0000,0.0000,-0.0000,1657.0000,1307.0000,1500.0000,1249.0000
596744.4500,2.0000,1000.0000,1673.0000,1961.0000,37.0000,-9.0000,-33.0000,-647.0000,-361.0000,6301.0000,0.5324,-0.7738,-0.0071,0.3432,122.8900,42.9700,-58.4000,15.2900,-1.9400,4.5600,0.0000,0.0000,-0.0000,1182.0000,1355.0000,1500.0000,1044.0000
596761.1340,2.0000,1000.0000,1674.0000,1962.0000,28.0000,7.0000,-32.0000,-626.0000,-295.0000,5238.0000,0.5378,-0.7713,-0.0086,0.3402,123.2100,42.9300,-58.2700,15.0200,-2.2500,4.8400,0.0000,0.0000,-0.0000,1182.0000,1355.0000,1500.0000,1044.0000
596777.8350,2.0000,1000.0000,1674.0000,1962.0000,14.0000,13.0000,-29.0000,-677.0000,-250.0000,4277.0000,0.5421,-0.7700,-0.0096,0.3364,123.5200,42.8900,-58.1300,14.8200,-2.4400,5.0900,0.0000,0.0000,-0.0000,1182.0000,1355.0000,1500.0000,1044.0000
596794.9850,2.0000,1000.0000,1674.0000,1962.0000,-13.0000,18.0000,-23.0000,-720.0000,-300.0000,3828.0000,0.5445,-0.7699,-0.0102,0.3327,123.8200,42.8500,-57.9800,14.6800,-2.5300,5.3200,0.0000,0.0000,-0.0000,1182.0000,1355.0000,1500.0000,1044.0000
596811.6100,2.0000,1000.0000,1674.0000,1962.0000,-54.0000,15.0000,-11.0000,-754.0000,-344.0000,3422.0000,0.5422,-0.7728,-0.0118,0.3297,124.1000,42.8100,-57.8300,14.5700,-2.5500,5.5300,0.0000,0.0000,-0.0000,1182.0000,1355.0000,1500.0000,1044.0000
596828.4400,2.0000,1000.0000,1674.0000,1962.0000,-107.0000,19.0000,1.0000,-775.0000,-357.0000,3201.0000,0.5335,-0.7799,-0.0146,0.3270,124.4200,42.7700,-57.6700,14.4800,-2.6900,5.7400,0.0000,0.0000,-0.0000,1182.0000,1355.0000,1500.0000,1044.0000
596844.9570,2.0000,1000.0000,1188.0000,1760.0000,-147.0000,23.0000,15.0000,-889.0000,-378.0000,2696.0000,0.5187,-0.7906,-0.0181,0.3250,124.4200,42.7700,-57.6700,14.4800,-2.6900,5.7400,0.0000,0.0000,-0.0000,1891.0000,1063.0000,1500.0000,1000.0000
596861.7530,2.0000,1000.0000,1000.0000,1547.0000,-189.0000,21.0000,28.0000,-969.0000,-313.0000,1828.0000,0.4981,-0.8043,-0.0217,0.3233,124.7300,42.7300,-57.5100,14.3900,-2.7800,5.9500,0.0000,0.0000,-0.0000,1891.0000,1063.0000,1500.0000,1000.0000
596878.8510,2.0000,1000.0000,1000.0000,1547.0000,-223.0000,14.0000,40.0000,-980.0000,-230.0000,1146.0000,0.4714,-0.8202,-0.0261,0.3229,125.0300,42.6900,-57.3400,14.3400,-2.7900,6.1400,0.0000,0.0000,-0.0000,1891.0000,1063.0000,1500.0000,1000.0000
596895.9750,2.0000,1000.0000,1000.0000,1547.0000,-231.0000,4.0000,48.0000,-977.0000,-191.0000,445.0000,0.4411,-0.8365,-0.0307,0.3237,125.3200,42.6500,-57.1700,14.3200,-2.7200,6.3200,0.0000,0.0000,-0.0000,1891.0000,1063.0000,1500.0000,1000.0000
596912.6350,2.0000,1000.0000,1000.0000,1547.0000,-183.0000,-16.0000,51.0000,-1000.0000,-225.0000,-183.0000,0.4131,-0.8495,-0.0346,0.3263,125.6100,42.6100,-57.0000,14.3300,-2.6000,6.4700,0.0000,0.0000,-0.0000,1891.0000,1063.0000,1500.0000,1000.0000
596929.1920,2.0000,1000.0000,1000.0000,1547.0000,-110.0000,-38.0000,46.0000,-976.0000,-86.0000,-684.0000,0.3925,-0.8571,-0.0372,0.3317,125.9200,42.5700,-56.8200,14.3200,-2.5500,6.5900,0.0000,0.0000,-0.0000,1891.0000,1063.0000,1500.0000,1000.0000
596945.9250,2.0000,1518.0000,1000.0000,1592.0000,-42.0000,-72.0000,34.0000,-1105.0000,39.0000,-629.0000,0.3808,-0.8588,-0.0392,0.3405,125.9200,42.5700,-56.8200,14.3200,-2.5500,6.5900,0.0000,0.0000,-0.0000,1775.0000,1132.0000,1500.0000,1566.0000
596962.6600,2.0000,1541.0000,1000.0000,1594.0000,16.0000,-97.0000,18.0000,-1150.0000,141.0000,-155.0000,0.3776,-0.8553,-0.0413,0.3525,126.2200,42.5400,-56.6500,14.3100,-2.4800,6.7000,0.0000,0.0000,-0.0000,1775.0000,1132.0000,1500.0000,1566.0000
596979.5240,2.0000,1541.0000,1000.0000,1594.0000,49.0000,-125.0000,5.0000,-1111.0000,119.0000,840.0000,0.3804,-0.8475,-0.0445,0.3675,126.5100,42.5000,-56.4700,14.2600,-2.4300,6.8400,0.0000,0.0000,-0.0000,1775.0000,1132.0000,1500.0000,1566.0000
596996.3800,2.0000,1541.0000,1000.0000,1594.0000,67.0000,-143.0000,-5.0000,-891.0000,-49.0000,1968.0000,0.3867,-0.8368,-0.0488,0.3845,126.8000,42.4700,-56.2900,14.1400,-2.4400,7.0300,0.0000,0.0000,-0.0000,1775.0000,1132.0000,1500.0000,1566.0000
597012.9260,2.0000,1541.0000,1000.0000,1594.0000,81.0000,-159.0000,-11.0000,-582.0000,-175.0000,2950.0000,0.3952,-0.8239,-0.0538,0.4027,127.0800,42.4300,-56.1000,13.9600,-2.5500,7.2800,0.0000,0.0000,-0.0000,1775.0000,1132.0000,1500.0000,1566.0000
597029.6650,2.0000,1541.0000,1000.0000,1594.0000,92.0000,-168.0000,-14.0000,-331.0000,-323.0000,4173.0000,0.4050,-0.8088,-0.0596,0.4221,127.0800,42.4300,-56.1000,13.9600,-2.5500,7.2800,0.0000,0.0000,-0.0000,1775.0000,1132.0000,1500.0000,1566.0000
597046.4020,2.0000,1997.0000,1000.0000,1464.0000,91.0000,-171.0000,-18.0000,-83.0000,-420.0000,5310.0000,0.4154,-0.7924,-0.0657,0.4418,127.3700,42.3800,-55.9100,13.6800,-2.7900,7.5700,0.0000,0.0000,-0.0000,1974.0000,1064.0000,1500.0000,2000.0000
597063.1940,2.0000,2000.0000,1000.0000,1463.0000,94.0000,-171.0000,-17.0000,132.0000,-506.0000,6345.0000,0.4256,-0.7752,-0.0719,0.4612,127.6600,42.3300,-55.7000,13.3200,-3.1300,7.9000,0.0000,0.0000,-0.0000,1974.0000,1064.0000,1500.0000,2000.0000
597079.9210,2.0000,2000.0000,1000.0000,1463.0000,96.0000,-160.0000,-20.0000,594.0000,-745.0000,7446.0000,0.4361,-0.7575,-0.0773,0.4796,127.9300,42.2800,-55.4900,12.8800,-3.5300,8.2400,0.0000,0.0000,-0.0000,1974.0000,1064.0000,1500.0000,2000.0000
597096.7170,2.0000,2000.0000,1000.0000,1463.0000,108.0000,-151.0000,-19.0000,1131.0000,-765.0000,8317.0000,0.4472,-0.7398,-0.0815,0.4961,128.1800,42.2100,-55.2700,12.3800,-4.0300,8.5900,0.0000,0.0000,-0.0000,1974.0000,1064.0000,1500.0000,2000.0000
597113.6350,2.0000,2000.0000,1000.0000,1463.0000,125.0000,-133.0000,-20.0000,1349.0000,-861.0000,8502.0000,0.4599,-0.7211,-0.0839,0.5113,128.4100,42.1500,-55.0100,11.8800,-4.5400,8.9600,0.0000,0.0000,-0.0000,1974.0000,1064.0000,1500.0000,2000.0000
597130.6250,2.0000,2000.0000,1000.0000,1463.0000,141.0000,-114.0000,-19.0000,1477.0000,-921.0000,8607.0000,0.4744,-0.7021,-0.0839,0.5244,128.4100,42.1500,-55.0100,11.8800,-4.5400,8.9600,0.0000,0.0000,-0.0000,1974.0000,1064.0000,1500.0000,2000.0000
597147.5820,2.0000,1939.0000,1120.0000,2000.0000,151.0000,-101.0000,-18.0000,1433.0000,-922.0000,8328.0000,0.4899,-0.6832,-0.0813,0.5354,128.6800,42.0700,-54.7100,11.4100,-5.0400,9.3200,0.0000,0.0000,-0.0000,1421.0000,1042.0000,1500.0000,1943.0000
597164.5490,2.0000,1939.0000,1120.0000,2000.0000,156.0000,-81.0000,-16.0000,1425.0000,-1021.0000,8151.0000,0.5064,-0.6639,-0.0769,0.5449,128.9200,41.9800,-54.3800,11.0100,-5.4500,9.6400,0.0000,0.0000,-0.0000,1421.0000,1042.0000,1500.0000,1943.0000
597181.4500,2.0000,1939.0000,1120.0000,2000.0000,127.0000,-73.0000,-13.0000,1200.0000,-844.0000,7222.0000,0.5212,-0.6469,-0.0716,0.5520,129.1400,41.9000,-54.0400,10.6900,-5.7800,9.9000,0.0000,0.0000,-0.0000,1421.0000,1042.0000,1500.0000,1943.0000
597198.5210,2.0000,1939.0000,1120.0000,2000.0000,85.0000,-87.0000,-5.0000,1099.0000,-982.0000,6413.0000,0.5319,-0.6322,-0.0692,0.5591,129.3400,41.8200,-53.6900,10.4600,-6.0000,10.1100,0.0000,0.0000,-0.0000,1421.0000,1042.0000,1500.0000,1943.0000
597215.6160,2.0000,1939.0000,1120.0000,2000.0000,42.0000,-103.0000,8.0000,1116.0000,-844.0000,6021.0000,0.5372,-0.6192,-0.0709,0.5683,129.5400,41.7300,-53.3500,10.2700,-6.1900,10.2800,0.0000,0.0000,-0.0000,1421.0000,1042.0000,1500.0000,1943.0000
597232.1670,2.0000,1939.0000,1120.0000,2000.0000,11.0000,-133.0000,19.0000,1143.0000,-976.0000,6315.0000,0.5375,-0.6080,-0.0762,0.5794,129.5400,41.7300,-53.3500,10.2700,-6.1900,10.2800,0.0000,0.0000,-0.0000,1421.0000,1042.0000,1500.0000,1943.0000
597248.8050,2.0000,1952.0000,1003.0000,1909.0000,-11.0000,-156.0000,29.0000,1108.0000,-1141.0000,7112.0000,0.5342,-0.5960,-0.0850,0.5934,129.7700,41.6200,-53.0000,9.9500,-6.5000,10.4300,0.0000,0.0000,-0.0000,1973.0000,1060.0000,1500.0000,2000.0000
597265.6340,2.0000,2000.0000,1000.0000,1468.0000,-21.0000,-179.0000,35.0000,1327.0000,-1222.0000,8266.0000,0.5284,-0.5830,-0.0962,0.6096,129.9900,41.5100,-52.6500,9.5900,-6.8100,10.5400,0.0000,0.0000,-0.0000,1973.0000,1060.0000,1500.0000,2000.0000
597282.2260,2.0000,2000.0000,1000.0000,1468.0000,-23.0000,-191.0000,40.0000,1352.0000,-1193.0000,9306.0000,0.5211,-0.5689,-0.1084,0.6269,130.1800,41.4000,-52.3100,9.1600,-7.1400,10.6000,0.0000,0.0000,-0.0000,1973.0000,1060.0000,1500.0000,2000.0000
597299.2560,2.0000,2000.0000,1000.0000,1468.0000,-10.0000,-190.0000,41.0000,1541.0000,-1172.0000,10427.0000,0.5133,-0.5531,-0.1209,0.6451,130.3600,41.2800,-51.9700,8.6200,-7.4800,10.5800,0.0000,0.0000,-0.0000,1973.0000,1060.0000,1500.0000,2000.0000
597315.9840,2.0000,2000.0000,1000.0000,1468.0000,8.0000,-178.0000,35.0000,1580.0000,-1075.0000,11143.0000,0.5070,-0.5365,-0.1310,0.6618,130.5200,41.1500,-51.6400,7.9800,-7.8500,10.5000,0.0000,0.0000,-0.0000,1973.0000,1060.0000,1500.0000,2000.0000
597332.6970,2.0000,2000.0000,1000.0000,1468.0000,36.0000,-160.0000,26.0000,1561.0000,-957.0000,11411.0000,0.5032,-0.5191,-0.1383,0.6769,130.5200,41.1500,-51.6400,7.9800,-7.8500,10.5000,0.0000,0.0000,-0.0000,1973.0000,1060.0000,1500.0000,2000.0000
597349.4280,2.0000,2000.0000,1000.0000,1545.0000,72.0000,-129.0000,16.0000,1522.0000,-1000.0000,11943.0000,0.5031,-0.5012,-0.1414,0.6897,130.6900,41.0000,-51.3100,7.1700,-8.3000,10.3600,0.0000,0.0000,-0.0000,1914.0000,1042.0000,1500.0000,2000.0000
597366.0830,2.0000,2000.0000,1000.0000,1545.0000,93.0000,-94.0000,3.0000,1402.0000,-1060.0000,12434.0000,0.5068,-0.4843,-0.1398,0.6993,130.8400,40.8500,-50.9900,6.3900,-8.7000,10.1400,0.0000,0.0000,-0.0000,1914.0000,1042.0000,1500.0000,2000.0000
597382.9040,2.0000,2000.0000,1000.0000,1545.0000,95.0000,-53.0000,-5.0000,1222.0000,-820.0000,11686.0000,0.5133,-0.4703,-0.1345,0.7052,130.9600,40.6900,-50.6800,5.6300,-9.0500,9.8100,0.0000,0.0000,-0.0000,1914.0000,1042.0000,1500.0000,2000.0000
597399.8890,2.0000,2000.0000,1000.0000,1545.0000,100.0000,-33.0000,-16.0000,871.0000,-596.0000,9593.0000,0.5212,-0.4582,-0.1277,0.7086,131.0700,40.5400,-50.3800,5.0300,-9.3000,9.4900,0.0000,0.0000,-0.0000,1914.0000,1042.0000,1500.0000,2000.0000
597416.6670,2.0000,2000.0000,1000.0000,1545.0000,99.0000,-23.0000,-29.0000,668.0000,-557.0000,8210.0000,0.5304,-0.4474,-0.1206,0.7099,131.1700,40.3800,-50.0800,4.6100,-9.4800,9.2400,0.0000,0.0000,-0.0000,1914.0000,1042.0000,1500.0000,2000.0000
597433.3280,2.0000,2000.0000,1000.0000,1545.0000,105.0000,-14.0000,-36.0000,712.0000,-509.0000,7288.0000,0.5406,-0.4370,-0.1133,0.7099,131.1700,40.3800,-50.0800,4.6100,-9.4800,9.2400,0.0000,0.0000,-0.0000,1914.0000,1042.0000,1500.0000,2000.0000
597450.0130,2.0000,2000.0000,1000.0000,1587.0000,109.0000,-28.0000,-41.0000,623.0000,-766.0000,6193.0000,0.5515,-0.4256,-0.1061,0.7095,131.2700,40.1900,-49.7700,4.1800,-9.7600,9.0600,0.0000,0.0000,-0.0000,1879.0000,1035.0000,1500.0000,2000.0000
597466.7400,2.0000,2000.0000,1000.0000,1587.0000,120.0000,-40.0000,-44.0000,718.0000,-895.0000,5583.0000,0.5631,-0.4125,-0.0991,0.7092,131.3700,40.0100,-49.4500,3.9200,-9.9800,8.9300,0.0000,0.0000,-0.0000,1879.0000,1035.0000,1500.0000,2000.0000
597483.5290,2.0000,2000.0000,1000.0000,1587.0000,128.0000,-71.0000,-47.0000,807.0000,-823.0000,5221.0000,0.5750,-0.3958,-0.0932,0.7100,131.4500,39.8400,-49.1200,3.7800,-10.1400,8.8600,0.0000,0.0000,-0.0000,1879.0000,1035.0000,1500.0000,2000.0000
597500.2480,2.0000,2000.0000,1000.0000,1587.0000,135.0000,-96.0000,-46.0000,550.0000,-857.0000,5178.0000,0.5866,-0.3754,-0.0892,0.7121,131.5300,39.6700,-48.8000,3.7000,-10.2600,8.8100,0.0000,0.0000,-0.0000,1879.0000,1035.0000,1500.0000,2000.0000
597517.1550,2.0000,2000.0000,1000.0000,1587.0000,146.0000,-117.0000,-43.0000,542.0000,-904.0000,5818.0000,0.5979,-0.3514,-0.0859,0.7153,131.5300,39.6700,-48.8000,3.7000,-10.2600,8.8100,0.0000,0.0000,-0.0000,1879.0000,1035.0000,1500.0000,2000.0000
597533.9890,2.0000,2000.0000,1000.0000,1587.0000,147.0000,-142.0000,-36.0000,568.0000,-1216.0000,7134.0000,0.6080,-0.3240,-0.0842,0.7199,131.6100,39.5000,-48.4800,3.4900,-10.4300,8.7200,0.0000,0.0000,-0.0000,1879.0000,1035.0000,1500.0000,2000.0000
597550.8250,2.0000,2000.0000,1000.0000,1536.0000,143.0000,-153.0000,-28.0000,665.0000,-1311.0000,8447.0000,0.6166,-0.2947,-0.0835,0.7253,131.6700,39.2700,-48.1600,2.9300,-10.8200,8.4900,0.0000,0.0000,-0.0000,1923.0000,1043.0000,1500.0000,2000.0000
597567.5510,2.0000,2000.0000,1000.0000,1535.0000,140.0000,-154.0000,-18.0000,1007.0000,-1414.0000,9833.0000,0.6234,-0.2652,-0.0833,0.7308,131.7300,39.0600,-47.8700,2.4200,-11.1600,8.1100,0.0000,0.0000,-0.0000,1923.0000,1043.0000,1500.0000,2000.0000
597584.3590,2.0000,2000.0000,1000.0000,1535.0000,136.0000,-151.0000,-11.0000,1159.0000,-1461.0000,10581.0000,0.6288,-0.2360,-0.0830,0.7363,131.7700,38.8500,-47.5900,1.9200,-11.5000,7.5600,0.0000,0.0000,-0.0000,1923.0000,1043.0000,1500.0000,2000.0000
597601.3730,2.0000,2000.0000,1000.0000,1535.0000,137.0000,-146.0000,-8.0000,1163.0000,-1295.0000,10633.0000,0.6329,-0.2066,-0.0822,0.7416,131.7900,38.6400,-47.3300,1.5000,-11.7800,6.9400,0.0000,0.0000,-0.0000,1923.0000,1043.0000,1500.0000,2000.0000
597618.1860,2.0000,2000.0000,1000.0000,1535.0000,133.0000,-131.0000,-6.0000,1108.0000,-1180.0000,11435.0000,0.6360,-0.1787,-0.0806,0.7463,131.7900,38.6400,-47.3300,1.5000,-11.7800,6.9400,0.0000,0.0000,-0.0000,1923.0000,1043.0000,1500.0000,2000.0000
597635.1870,2.0000,2000.0000,1000.0000,1532.0000,126.0000,-109.0000,-8.0000,997.0000,-1166.0000,12067.0000,0.6388,-0.1531,-0.0779,0.7499,131.8100,38.4100,-47.0900,1.0800,-12.0400,6.2600,0.0000,0.0000,-0.0000,1931.0000,1049.0000,1500.0000,2000.0000
597651.9990,2.0000,2000.0000,1000.0000,1521.0000,126.0000,-81.0000,-10.0000,978.0000,-1150.0000,11821.0000,0.6417,-0.1308,-0.0733,0.7521,131.8200,38.1500,-46.8600,0.6000,-12.3600,5.4500,0.0000,0.0000,-0.0000,1931.0000,1049.0000,1500.0000,2000.0000
597668.8090,2.0000,2000.0000,1000.0000,1521.0000,131.0000,-61.0000,-10.0000,920.0000,-1005.0000,10748.0000,0.6448,-0.1111,-0.0658,0.7534,131.8100,37.8900,-46.6400,0.2100,-12.6000,4.6100,0.0000,0.0000,-0.0000,1931.0000,1049.0000,1500.0000,2000.0000
597685.5960,2.0000,2000.0000,1000.0000,1521.0000,136.0000,-55.0000,-13.0000,863.0000,-910.0000,9489.0000,0.6480,-0.0922,-0.0568,0.7539,131.8000,37.6400,-46.4400,-0.0800,-12.7800,3.8600,0.0000,0.0000,-0.0000,1931.0000,1049.0000,1500.0000,2000.0000
597702.3410,2.0000,2000.0000,1000.0000,1521.0000,141.0000,-56.0000,-16.0000,711.0000,-850.0000,8191.0000,0.6513,-0.0734,-0.0467,0.7539,131.7900,37.3900,-46.2600,-0.2700,-12.9100,3.2600,0.0000,0.0000,-0.0000,1931.0000,1049.0000,1500.0000,2000.0000
597719.0660,2.0000,2000.0000,1000.0000,1521.0000,140.0000,-65.0000,-22.0000,514.0000,-701.0000,7131.0000,0.6546,-0.0534,-0.0371,0.7532,131.7900,37.3900,-46.2600,-0.2700,-12.9100,3.2600,0.0000,0.0000,-0.0000,1931.0000,1049.0000,1500.0000,2000.0000
597735.6960,2.0000,2000.0000,1000.0000,1521.0000,142.0000,-78.0000,-28.0000,526.0000,-705.0000,6972.0000,0.6581,-0.0323,-0.0286,0.7517,131.7700,37.1400,-46.0900,-0.4500,-13.0300,2.8000,0.0000,0.0000,-0.0000,1931.0000,1049.0000,1500.0000,2000.0000
597752.6360,2.0000,2000.0000,1000.0000,1526.0000,144.0000,-88.0000,-31.0000,628.0000,-687.0000,6922.0000,0.6617,-0.0093,-0.0208,0.7495,131.7300,36.8400,-45.9100,-0.6800,-13.2000,2.4200,0.0000,0.0000,-0.0000,1926.0000,1049.0000,1500.0000,2000.0000
597769.2670,2.0000,2000.0000,1000.0000,1526.0000,147.0000,-95.0000,-34.0000,569.0000,-595.0000,6808.0000,0.6652,0.0149,-0.0141,0.7463,131.6900,36.5500,-45.7300,-0.8600,-13.3300,2.0600,0.0000,0.0000,-0.0000,1926.0000,1049.0000,1500.0000,2000.0000
