t_ms,msp,motor,servo0,servo1,gyro_p,gyro_q,gyro_r,acc_x,acc_y,acc_z,qw,qx,qy,qz,pos_n,pos_e,pos_d,vel_n,vel_e,vel_d,tgtpos_n,tgtpos_e,tgtpos_d,rcData0,rcData1,rcData2,rcData3
554767.7710,3.0000,1665.0000,1465.0000,1505.0000,6.0000,-13.0000,0.0000,986.0000,-328.0000,2030.0000,0.2712,0.3188,-0.0565,0.9064,189.4100,-23.2700,-113.1600,-9.5500,-1.4400,-6.6200,0.0000,0.0000,-0.0000,1500.0000,1498.0000,1500.0000,1684.0000
554784.6920,3.0000,1662.0000,1465.0000,1507.0000,8.0000,-12.0000,1.0000,947.0000,-230.0000,2036.0000,0.2705,0.3209,-0.0563,0.9059,189.4100,-23.2700,-113.1600,-9.5500,-1.4400,-6.6200,0.0000,0.0000,-0.0000,1500.0000,1498.0000,1500.0000,1681.0000
554801.3270,3.0000,1665.0000,1467.0000,1507.0000,7.0000,-13.0000,2.0000,1042.0000,-391.0000,1974.0000,0.2695,0.3230,-0.0560,0.9055,189.1900,-23.2800,-113.3000,-9.5100,-1.4200,-6.6400,0.0000,0.0000,-0.0000,1500.0000,1498.0000,1500.0000,1684.0000
554817.9400,3.0000,1665.0000,1468.0000,1508.0000,9.0000,-14.0000,3.0000,1030.0000,-328.0000,1981.0000,0.2685,0.3251,-0.0558,0.9050,188.9800,-23.2900,-113.4500,-9.4700,-1.4100,-6.6500,0.0000,0.0000,-0.0000,1500.0000,1498.0000,1500.0000,1684.0000
554834.6110,3.0000,1665.0000,1469.0000,1507.0000,9.0000,-14.0000,2.0000,1044.0000,-313.0000,1959.0000,0.2674,0.3272,-0.0556,0.9046,188.7700,-23.3000,-113.6000,-9.4300,-1.4000,-6.6700,0.0000,0.0000,-0.0000,1500.0000,1498.0000,1500.0000,1684.0000
554851.4950,3.0000,1665.0000,1468.0000,1504.0000,7.0000,-15.0000,2.0000,1049.0000,-375.0000,1973.0000,0.2663,0.3295,-0.0556,0.9041,188.5600,-23.3000,-113.7400,-9.3800,-1.3900,-6.6900,0.0000,0.0000,-0.0000,1500.0000,1498.0000,1500.0000,1684.0000
554868.3090,3.0000,1665.0000,1469.0000,1505.0000,8.0000,-15.0000,1.0000,941.0000,-311.0000,2026.0000,0.2653,0.3319,-0.0555,0.9035,188.5600,-23.3000,-113.7400,-9.3800,-1.3900,-6.6900,0.0000,0.0000,-0.0000,1500.0000,1500.0000,1500.0000,1684.0000
554884.8310,3.0000,1665.0000,1471.0000,1507.0000,11.0000,-14.0000,1.0000,1027.0000,-362.0000,2030.0000,0.2645,0.3342,-0.0554,0.9029,188.3500,-23.3200,-113.8900,-9.3300,-1.3900,-6.7100,0.0000,0.0000,-0.0000,1500.0000,1498.0000,1500.0000,1684.0000
554901.3960,3.0000,1664.0000,1472.0000,1506.0000,10.0000,-15.0000,-1.0000,999.0000,-234.0000,2061.0000,0.2637,0.3366,-0.0551,0.9023,188.1400,-23.3300,-114.0400,-9.2700,-1.3900,-6.7300,0.0000,0.0000,-0.0000,1500.0000,1500.0000,1500.0000,1683.0000
554918.0520,3.0000,1664.0000,1472.0000,1506.0000,11.0000,-16.0000,-3.0000,1027.0000,-335.0000,2042.0000,0.2631,0.3391,-0.0545,0.9016,187.9300,-23.3400,-114.1900,-9.2100,-1.3900,-6.7600,0.0000,0.0000,-0.0000,1500.0000,1500.0000,1500.0000,1683.0000
554934.5460,3.0000,1665.0000,1472.0000,1506.0000,11.0000,-15.0000,-6.0000,1060.0000,-190.0000,2051.0000,0.2628,0.3415,-0.0538,0.9008,187.7300,-23.3500,-114.3300,-9.1500,-1.3900,-6.7900,0.0000,0.0000,-0.0000,1500.0000,1500.0000,1500.0000,1684.0000
554951.1830,3.0000,1665.0000,1473.0000,1505.0000,10.0000,-16.0000,-8.0000,1035.0000,-142.0000,2118.0000,0.2630,0.3439,-0.0528,0.8999,187.5400,-23.3600,-114.4800,-9.0900,-1.3700,-6.8200,0.0000,0.0000,-0.0000,1500.0000,1500.0000,1500.0000,1684.0000
554968.0950,3.0000,1665.0000,1471.0000,1503.0000,8.0000,-16.0000,-12.0000,1067.0000,-179.0000,2232.0000,0.2637,0.3465,-0.0520,0.8987,187.5400,-23.3600,-114.4800,-9.0900,-1.3700,-6.8200,0.0000,0.0000,-0.0000,1500.0000,1498.0000,1500.0000,1684.0000
554984.6730,3.0000,1665.0000,1472.0000,1504.0000,7.0000,-15.0000,-12.0000,1081.0000,-170.0000,2375.0000,0.2648,0.3490,-0.0510,0.8975,187.3400,-23.3700,-114.6400,-9.0300,-1.3700,-6.8500,0.0000,0.0000,-0.0000,1500.0000,1498.0000,1500.0000,1684.0000
555001.2680,3.0000,1665.0000,1472.0000,1504.0000,9.0000,-13.0000,-15.0000,1043.0000,-34.0000,2483.0000,0.2661,0.3512,-0.0500,0.8963,187.1300,-23.3800,-114.7900,-8.9500,-1.3700,-6.9000,0.0000,0.0000,-0.0000,1500.0000,1498.0000,1500.0000,1684.0000
555017.8020,3.0000,1663.0000,1470.0000,1502.0000,4.0000,-14.0000,-16.0000,1056.0000,-253.0000,2413.0000,0.2676,0.3533,-0.0489,0.8951,186.9400,-23.3900,-114.9400,-8.8700,-1.3500,-6.9600,0.0000,0.0000,-0.0000,1500.0000,1500.0000,1500.0000,1682.0000
555034.3490,3.0000,1664.0000,1468.0000,1500.0000,1.0000,-13.0000,-15.0000,986.0000,-226.0000,2297.0000,0.2694,0.3552,-0.0483,0.8938,186.7500,-23.4100,-115.0900,-8.7800,-1.3500,-7.0100,0.0000,0.0000,-0.0000,1500.0000,1498.0000,1500.0000,1684.0000
555051.2000,3.0000,1664.0000,1468.0000,1500.0000,0.0000,-13.0000,-16.0000,970.0000,-307.0000,2199.0000,0.2715,0.3568,-0.0479,0.8926,186.5600,-23.4200,-115.2500,-8.7000,-1.3600,-7.0400,0.0000,0.0000,-0.0000,1500.0000,1498.0000,1500.0000,1683.0000
555067.9540,3.0000,1664.0000,1472.0000,1502.0000,5.0000,-13.0000,-18.0000,1068.0000,-405.0000,2198.0000,0.2736,0.3587,-0.0473,0.8912,186.5600,-23.4200,-115.2500,-8.7000,-1.3600,-7.0400,0.0000,0.0000,-0.0000,1500.0000,1498.0000,1500.0000,1683.0000
555084.6460,3.0000,1664.0000,1471.0000,1501.0000,3.0000,-13.0000,-18.0000,1169.0000,-435.0000,2244.0000,0.2756,0.3608,-0.0465,0.8898,186.3700,-23.4300,-115.4000,-8.6100,-1.3900,-7.0700,0.0000,0.0000,-0.0000,1500.0000,1498.0000,1500.0000,1683.0000
555101.3160,3.0000,1664.0000,1472.0000,1502.0000,5.0000,-13.0000,-18.0000,1233.0000,-550.0000,2229.0000,0.2775,0.3629,-0.0457,0.8884,186.1800,-23.4500,-115.5600,-8.5300,-1.4400,-7.1100,0.0000,0.0000,-0.0000,1500.0000,1500.0000,1500.0000,1684.0000
555117.9270,3.0000,1664.0000,1474.0000,1504.0000,8.0000,-13.0000,-18.0000,1114.0000,-343.0000,2240.0000,0.2795,0.3647,-0.0444,0.8871,185.9900,-23.4700,-115.7200,-8.4400,-1.4900,-7.1500,0.0000,0.0000,-0.0000,1500.0000,1500.0000,1500.0000,1683.0000
555134.5310,3.0000,1664.0000,1475.0000,1505.0000,10.0000,-12.0000,-19.0000,1057.0000,-333.0000,2194.0000,0.2813,0.3668,-0.0426,0.8857,185.8100,-23.4800,-115.8700,-8.3600,-1.5200,-7.1800,0.0000,0.0000,-0.0000,1500.0000,1500.0000,1500.0000,1683.0000
555151.1430,3.0000,1664.0000,1479.0000,1505.0000,13.0000,-14.0000,-17.0000,1177.0000,-589.0000,2111.0000,0.2828,0.3692,-0.0408,0.8843,185.8100,-23.4800,-115.8700,-8.3600,-1.5200,-7.1800,0.0000,0.0000,-0.0000,1500.0000,1500.0000,1500.0000,1683.0000
555167.7820,3.0000,1665.0000,1476.0000,1504.0000,10.0000,-12.0000,-17.0000,1158.0000,-349.0000,2191.0000,0.2843,0.3715,-0.0389,0.8830,185.6300,-23.5100,-116.0300,-8.2700,-1.5700,-7.2000,0.0000,0.0000,-0.0000,1500.0000,1498.0000,1500.0000,1684.0000
555184.5460,3.0000,1665.0000,1476.0000,1504.0000,10.0000,-11.0000,-16.0000,1042.0000,-107.0000,2225.0000,0.2859,0.3736,-0.0369,0.8817,185.4400,-23.5300,-116.1900,-8.1800,-1.6100,-7.2400,0.0000,0.0000,-0.0000,1500.0000,1498.0000,1500.0000,1684.0000
555201.2320,3.0000,1665.0000,1476.0000,1504.0000,10.0000,-11.0000,-15.0000,1141.0000,-371.0000,2148.0000,0.2872,0.3755,-0.0352,0.8805,185.2600,-23.5500,-116.3500,-8.1000,-1.6200,-7.2700,0.0000,0.0000,-0.0000,1500.0000,1500.0000,1500.0000,1684.0000
555217.8800,3.0000,1665.0000,1473.0000,1501.0000,4.0000,-10.0000,-12.0000,1361.0000,-713.0000,2023.0000,0.2883,0.3773,-0.0342,0.8794,185.0900,-23.5800,-116.5100,-8.0100,-1.6700,-7.2900,0.0000,0.0000,-0.0000,1500.0000,1498.0000,1500.0000,1684.0000
555234.4700,3.0000,1663.0000,1471.0000,1501.0000,3.0000,-8.0000,-12.0000,1273.0000,-647.0000,1933.0000,0.2894,0.3787,-0.0336,0.8785,184.9200,-23.6000,-116.6700,-7.9300,-1.7400,-7.3200,0.0000,0.0000,-0.0000,1500.0000,1500.0000,1500.0000,1682.0000
555251.1490,3.0000,1663.0000,1469.0000,1501.0000,1.0000,-7.0000,-12.0000,1124.0000,-285.0000,1936.0000,0.2909,0.3796,-0.0331,0.8776,184.9200,-23.6000,-116.6700,-7.9300,-1.7400,-7.3200,0.0000,0.0000,-0.0000,1500.0000,1498.0000,1500.0000,1682.0000
555267.7000,3.0000,1664.0000,1471.0000,1501.0000,2.0000,-8.0000,-12.0000,1129.0000,-409.0000,1843.0000,0.2923,0.3807,-0.0327,0.8766,184.7600,-23.6200,-116.8300,-7.8500,-1.7800,-7.3400,0.0000,0.0000,-0.0000,1500.0000,1498.0000,1500.0000,1684.0000
555284.3370,3.0000,1665.0000,1471.0000,1501.0000,2.0000,-8.0000,-12.0000,1160.0000,-512.0000,1822.0000,0.2938,0.3820,-0.0323,0.8756,184.5900,-23.6500,-116.9900,-7.7700,-1.8300,-7.3400,0.0000,0.0000,-0.0000,1500.0000,1498.0000,1500.0000,1684.0000
555300.9970,3.0000,1665.0000,1473.0000,1503.0000,4.0000,-7.0000,-12.0000,1041.0000,-233.0000,1881.0000,0.2952,0.3831,-0.0316,0.8747,184.4200,-23.6800,-117.1500,-7.6800,-1.8800,-7.3500,0.0000,0.0000,-0.0000,1500.0000,1498.0000,1500.0000,1684.0000
555317.5320,3.0000,1665.0000,1473.0000,1503.0000,4.0000,-6.0000,-12.0000,1116.0000,-406.0000,1847.0000,0.2966,0.3842,-0.0310,0.8738,184.2600,-23.7100,-117.3100,-7.5900,-1.9100,-7.3500,0.0000,0.0000,-0.0000,1500.0000,1498.0000,1500.0000,1684.0000
555334.1920,3.0000,1665.0000,1473.0000,1503.0000,4.0000,-6.0000,-12.0000,1195.0000,-555.0000,1817.0000,0.2978,0.3852,-0.0306,0.8729,184.2600,-23.7100,-117.3100,-7.5900,-1.9100,-7.3500,0.0000,0.0000,-0.0000,1500.0000,1498.0000,1500.0000,1684.0000
555350.9810,3.0000,1665.0000,1471.0000,1503.0000,2.0000,-4.0000,-13.0000,1165.0000,-469.0000,1797.0000,0.2993,0.3862,-0.0299,0.8720,184.1000,-23.7400,-117.4700,-7.5000,-1.9700,-7.3600,0.0000,0.0000,-0.0000,1498.0000,1500.0000,1500.0000,1684.0000
555367.6810,3.0000,1665.0000,1471.0000,1503.0000,3.0000,-5.0000,-13.0000,1139.0000,-348.0000,1781.0000,0.3009,0.3869,-0.0293,0.8712,183.9400,-23.7800,-117.6300,-7.4100,-2.0300,-7.3600,0.0000,0.0000,-0.0000,1498.0000,1500.0000,1500.0000,1684.0000
555384.3520,3.0000,1665.0000,1470.0000,1502.0000,1.0000,-5.0000,-13.0000,1135.0000,-268.0000,1752.0000,0.3025,0.3876,-0.0289,0.8703,183.7800,-23.8200,-117.7900,-7.3200,-2.0700,-7.3700,0.0000,0.0000,-0.0000,1498.0000,1500.0000,1500.0000,1684.0000
555400.9140,3.0000,1665.0000,1471.0000,1503.0000,3.0000,-4.0000,-14.0000,1215.0000,-416.0000,1694.0000,0.3040,0.3884,-0.0283,0.8694,183.6200,-23.8500,-117.9500,-7.2500,-2.1100,-7.3700,0.0000,0.0000,-0.0000,1498.0000,1500.0000,1500.0000,1684.0000
555417.6450,3.0000,1665.0000,1471.0000,1503.0000,3.0000,-4.0000,-15.0000,1201.0000,-358.0000,1673.0000,0.3057,0.3890,-0.0274,0.8686,183.4700,-23.8900,-118.1200,-7.1700,-2.1500,-7.3700,0.0000,0.0000,-0.0000,1498.0000,1500.0000,1500.0000,1684.0000
555434.3470,3.0000,1665.0000,1472.0000,1504.0000,4.0000,-4.0000,-16.0000,1059.0000,-200.0000,1658.0000,0.3076,0.3896,-0.0263,0.8677,183.4700,-23.8900,-118.1200,-7.1700,-2.1500,-7.3700,0.0000,0.0000,-0.0000,1500.0000,1498.0000,1500.0000,1684.0000
555451.0440,3.0000,1665.0000,1472.0000,1504.0000,5.0000,-3.0000,-18.0000,1100.0000,-273.0000,1637.0000,0.3095,0.3903,-0.0252,0.8668,183.3200,-23.9200,-118.2800,-7.1000,-2.1800,-7.3600,0.0000,0.0000,-0.0000,1500.0000,1498.0000,1500.0000,1684.0000
555467.9370,3.0000,1665.0000,1472.0000,1506.0000,6.0000,-3.0000,-18.0000,1086.0000,-174.0000,1670.0000,0.3114,0.3911,-0.0236,0.8657,183.1700,-23.9600,-118.4400,-7.0200,-2.2300,-7.3500,0.0000,0.0000,-0.0000,1500.0000,1496.0000,1500.0000,1684.0000
555484.7360,3.0000,1665.0000,1472.0000,1504.0000,5.0000,-4.0000,-19.0000,1129.0000,-135.0000,1737.0000,0.3137,0.3917,-0.0221,0.8647,183.0200,-24.0000,-118.6000,-6.9500,-2.2700,-7.3500,0.0000,0.0000,-0.0000,1500.0000,1498.0000,1500.0000,1684.0000
555501.4000,3.0000,1663.0000,1472.0000,1504.0000,4.0000,-2.0000,-19.0000,1166.0000,-224.0000,1758.0000,0.3159,0.3922,-0.0207,0.8637,182.8700,-24.0500,-118.7600,-6.8700,-2.3100,-7.3500,0.0000,0.0000,-0.0000,1500.0000,1500.0000,1500.0000,1682.0000
555518.1170,2.0000,1999.0000,1459.0000,2000.0000,3.0000,-3.0000,-20.0000,1173.0000,-392.0000,1670.0000,0.3182,0.3928,-0.0193,0.8626,182.7300,-24.0900,-118.9200,-6.7800,-2.3600,-7.3400,0.0000,0.0000,-0.0000,1069.0000,1028.0000,1500.0000,2000.0000
555535.0490,2.0000,2000.0000,1459.0000,2000.0000,2.0000,-2.0000,-21.0000,1092.0000,-258.0000,1581.0000,0.3207,0.3933,-0.0179,0.8615,182.7300,-24.0900,-118.9200,-6.7800,-2.3600,-7.3400,0.0000,0.0000,-0.0000,1069.0000,1028.0000,1500.0000,2000.0000
555552.2550,2.0000,2000.0000,1459.0000,2000.0000,-10.0000,-5.0000,-22.0000,955.0000,92.0000,1356.0000,0.3238,0.3934,-0.0171,0.8603,182.5900,-24.1300,-119.0800,-6.7000,-2.4100,-7.3200,0.0000,0.0000,-0.0000,1069.0000,1028.0000,1500.0000,2000.0000
555568.8030,2.0000,2000.0000,1459.0000,2000.0000,-27.0000,-17.0000,-22.0000,1162.0000,-32.0000,912.0000,0.3277,0.3942,-0.0185,0.8584,182.4500,-24.1700,-119.2400,-6.6400,-2.4400,-7.2900,0.0000,0.0000,-0.0000,1069.0000,1028.0000,1500.0000,2000.0000
555585.6530,2.0000,2000.0000,1459.0000,2000.0000,-57.0000,-27.0000,-18.0000,1558.0000,-159.0000,1028.0000,0.3329,0.3953,-0.0239,0.8558,182.3000,-24.2200,-119.4100,-6.6100,-2.5200,-7.2300,0.0000,0.0000,-0.0000,1069.0000,1028.0000,1500.0000,2000.0000
555602.2680,2.0000,2000.0000,1457.0000,2000.0000,-82.0000,-51.0000,-12.0000,1486.0000,-456.0000,1119.0000,0.3386,0.3973,-0.0337,0.8523,182.1600,-24.2700,-119.5700,-6.5600,-2.6200,-7.1800,0.0000,0.0000,-0.0000,1076.0000,1028.0000,1500.0000,2000.0000
555619.0610,2.0000,2000.0000,1452.0000,2000.0000,-98.0000,-62.0000,-11.0000,1669.0000,-730.0000,1563.0000,0.3450,0.4005,-0.0476,0.8475,182.1600,-24.2700,-119.5700,-6.5600,-2.6200,-7.1800,0.0000,0.0000,-0.0000,1076.0000,1028.0000,1500.0000,2000.0000
555635.9200,2.0000,2000.0000,1452.0000,2000.0000,-108.0000,-76.0000,-8.0000,1892.0000,-647.0000,2170.0000,0.3517,0.4043,-0.0636,0.8419,182.0300,-24.3100,-119.7300,-6.4700,-2.7300,-7.1400,0.0000,0.0000,-0.0000,1076.0000,1028.0000,1500.0000,2000.0000
555653.0220,2.0000,2000.0000,1452.0000,2000.0000,-114.0000,-80.0000,-6.0000,1694.0000,-794.0000,2453.0000,0.3587,0.4081,-0.0809,0.8356,181.9100,-24.3500,-119.8800,-6.3500,-2.8200,-7.1700,0.0000,0.0000,-0.0000,1076.0000,1028.0000,1500.0000,2000.0000
555669.8240,2.0000,2000.0000,1452.0000,2000.0000,-118.0000,-91.0000,-5.0000,1553.0000,-459.0000,3066.0000,0.3655,0.4123,-0.0995,0.8286,181.7700,-24.4100,-120.0400,-6.2000,-2.9100,-7.2100,0.0000,0.0000,-0.0000,1076.0000,1028.0000,1500.0000,2000.0000
555686.7190,2.0000,2000.0000,1452.0000,2000.0000,-125.0000,-90.0000,-5.0000,1473.0000,-232.0000,3607.0000,0.3724,0.4169,-0.1190,0.8206,181.6300,-24.4700,-120.2000,-6.0300,-2.9400,-7.2900,0.0000,0.0000,-0.0000,1076.0000,1028.0000,1500.0000,2000.0000
555703.7260,2.0000,2000.0000,1000.0000,1761.0000,-127.0000,-92.0000,-5.0000,1582.0000,-215.0000,4033.0000,0.3794,0.4209,-0.1392,0.8121,181.5100,-24.5200,-120.3600,-5.8600,-2.9000,-7.4100,0.0000,0.0000,-0.0000,1674.0000,1068.0000,1500.0000,2000.0000
555720.2600,2.0000,2000.0000,1000.0000,1760.0000,-126.0000,-93.0000,-4.0000,1776.0000,-292.0000,4384.0000,0.3861,0.4246,-0.1588,0.8034,181.5100,-24.5200,-120.3600,-5.8600,-2.9000,-7.4100,0.0000,0.0000,-0.0000,1674.0000,1068.0000,1500.0000,2000.0000
555737.5270,2.0000,2000.0000,1000.0000,1760.0000,-106.0000,-96.0000,-7.0000,2027.0000,-355.0000,4569.0000,0.3921,0.4293,-0.1783,0.7939,181.4000,-24.5700,-120.5100,-5.6800,-2.8200,-7.5600,0.0000,0.0000,-0.0000,1674.0000,1068.0000,1500.0000,2000.0000
555754.4280,2.0000,2000.0000,1000.0000,1760.0000,-70.0000,-105.0000,-10.0000,2033.0000,-527.0000,4495.0000,0.3962,0.4359,-0.1939,0.7845,181.2900,-24.6200,-120.6700,-5.5000,-2.7300,-7.7400,0.0000,0.0000,-0.0000,1674.0000,1068.0000,1500.0000,2000.0000
555771.0580,2.0000,2000.0000,1000.0000,1760.0000,-45.0000,-118.0000,-15.0000,1978.0000,-406.0000,4508.0000,0.3981,0.4458,-0.2061,0.7748,181.1700,-24.6700,-120.8400,-5.3300,-2.6800,-7.9200,0.0000,0.0000,-0.0000,1674.0000,1068.0000,1500.0000,2000.0000
555787.8250,2.0000,2000.0000,1000.0000,1760.0000,-26.0000,-121.0000,-18.0000,1870.0000,-244.0000,4717.0000,0.3990,0.4576,-0.2156,0.7648,181.0500,-24.7300,-121.0000,-5.1700,-2.6100,-8.0800,0.0000,0.0000,-0.0000,1674.0000,1068.0000,1500.0000,2000.0000
555804.8510,2.0000,2000.0000,1470.0000,2000.0000,-12.0000,-123.0000,-20.0000,2114.0000,-364.0000,5158.0000,0.3986,0.4712,-0.2239,0.7543,180.9500,-24.7800,-121.1700,-5.0100,-2.5000,-8.2500,0.0000,0.0000,-0.0000,1059.0000,1029.0000,1500.0000,2000.0000
555821.4520,2.0000,2000.0000,1470.0000,2000.0000,-8.0000,-126.0000,-21.0000,2183.0000,-643.0000,5601.0000,0.3977,0.4848,-0.2308,0.7440,180.9500,-24.7800,-121.1700,-5.0100,-2.5000,-8.2500,0.0000,0.0000,-0.0000,1059.0000,1029.0000,1500.0000,2000.0000
555838.6160,2.0000,2000.0000,1470.0000,2000.0000,-10.0000,-124.0000,-18.0000,2127.0000,-848.0000,5972.0000,0.3964,0.4988,-0.2378,0.7331,180.8500,-24.8300,-121.3400,-4.8100,-2.3700,-8.4700,0.0000,0.0000,-0.0000,1059.0000,1029.0000,1500.0000,2000.0000
555855.3160,2.0000,2000.0000,1470.0000,2000.0000,-24.0000,-106.0000,-15.0000,2125.0000,-999.0000,6250.0000,0.3955,0.5107,-0.2451,0.7230,180.7600,-24.8700,-121.5100,-4.5700,-2.2100,-8.6700,0.0000,0.0000,-0.0000,1059.0000,1029.0000,1500.0000,2000.0000
555872.1110,2.0000,2000.0000,1470.0000,2000.0000,-37.0000,-86.0000,-5.0000,2070.0000,-1066.0000,6142.0000,0.3956,0.5193,-0.2531,0.7140,180.6600,-24.9200,-121.6900,-4.2400,-2.0300,-8.8600,0.0000,0.0000,-0.0000,1059.0000,1029.0000,1500.0000,2000.0000
555888.8070,2.0000,2000.0000,1470.0000,2000.0000,-49.0000,-61.0000,3.0000,1744.0000,-1140.0000,5658.0000,0.3964,0.5245,-0.2621,0.7064,180.5700,-24.9700,-121.8700,-3.9300,-1.8600,-9.0200,0.0000,0.0000,-0.0000,1059.0000,1029.0000,1500.0000,2000.0000
555905.4220,2.0000,2000.0000,1469.0000,2000.0000,-58.0000,-40.0000,6.0000,1760.0000,-716.0000,5376.0000,0.3982,0.5263,-0.2710,0.7007,180.4900,-25.0100,-122.0500,-3.6700,-1.7100,-9.1400,0.0000,0.0000,-0.0000,1060.0000,1029.0000,1500.0000,2000.0000
555922.1480,2.0000,2000.0000,1469.0000,2000.0000,-68.0000,-23.0000,12.0000,1861.0000,-324.0000,4840.0000,0.4011,0.5252,-0.2799,0.6963,180.4900,-25.0100,-122.0500,-3.6700,-1.7100,-9.1400,0.0000,0.0000,-0.0000,1060.0000,1029.0000,1500.0000,2000.0000
555938.9000,2.0000,2000.0000,1469.0000,2000.0000,-78.0000,-8.0000,18.0000,2005.0000,-393.0000,4511.0000,0.4046,0.5218,-0.2896,0.6929,180.4200,-25.0500,-122.2300,-3.5000,-1.5800,-9.2500,0.0000,0.0000,-0.0000,1060.0000,1029.0000,1500.0000,2000.0000
555955.6750,2.0000,2000.0000,1469.0000,2000.0000,-82.0000,0.0000,23.0000,1962.0000,-517.0000,4003.0000,0.4086,0.5165,-0.2999,0.6902,180.3500,-25.0800,-122.4200,-3.3900,-1.5000,-9.3800,0.0000,0.0000,-0.0000,1060.0000,1029.0000,1500.0000,2000.0000
555972.1770,2.0000,2000.0000,1469.0000,2000.0000,-87.0000,2.0000,26.0000,2085.0000,-305.0000,3627.0000,0.4130,0.5098,-0.3100,0.6881,180.2800,-25.1200,-122.6200,-3.1600,-1.4200,-9.4800,0.0000,0.0000,-0.0000,1060.0000,1029.0000,1500.0000,2000.0000
555988.9370,2.0000,2000.0000,1469.0000,2000.0000,-93.0000,4.0000,27.0000,2295.0000,-167.0000,3298.0000,0.4170,0.5031,-0.3212,0.6854,180.2100,-25.1600,-122.8100,-3.0000,-1.3800,-9.5900,0.0000,0.0000,-0.0000,1060.0000,1029.0000,1500.0000,2000.0000
556005.6370,2.0000,2000.0000,1469.0000,2000.0000,-94.0000,4.0000,26.0000,2160.0000,33.0000,2848.0000,0.4218,0.4954,-0.3323,0.6828,180.2100,-25.1600,-122.8100,-3.0000,-1.3800,-9.5900,0.0000,0.0000,-0.0000,1060.0000,1029.0000,1500.0000,2000.0000
556022.1540,2.0000,2000.0000,1469.0000,2000.0000,-101.0000,-4.0000,25.0000,2070.0000,-223.0000,2390.0000,0.4264,0.4882,-0.3439,0.6794,180.1500,-25.2000,-123.0100,-2.9000,-1.3700,-9.7000,0.0000,0.0000,-0.0000,1060.0000,1029.0000,1500.0000,2000.0000
556038.8990,2.0000,2000.0000,1469.0000,2000.0000,-108.0000,-20.0000,25.0000,2117.0000,-437.0000,2125.0000,0.4309,0.4814,-0.3568,0.6748,180.1000,-25.2400,-123.2100,-2.8300,-1.4200,-9.7700,0.0000,0.0000,-0.0000,1060.0000,1029.0000,1500.0000,2000.0000
556055.8910,2.0000,2000.0000,1469.0000,2000.0000,-121.0000,-21.0000,21.0000,2214.0000,-124.0000,2347.0000,0.4360,0.4746,-0.3713,0.6685,180.0500,-25.2700,-123.4100,-2.7500,-1.4900,-9.8300,0.0000,0.0000,-0.0000,1060.0000,1029.0000,1500.0000,2000.0000
556072.7230,2.0000,2000.0000,1469.0000,2000.0000,-128.0000,-34.0000,18.0000,1880.0000,40.0000,2376.0000,0.4415,0.4681,-0.3866,0.6607,179.9900,-25.3200,-123.6200,-2.5000,-1.4100,-9.9100,0.0000,0.0000,-0.0000,1060.0000,1029.0000,1500.0000,2000.0000
556089.7170,2.0000,2000.0000,1469.0000,2000.0000,-133.0000,-55.0000,16.0000,1908.0000,-132.0000,2435.0000,0.4465,0.4626,-0.4037,0.6508,179.9500,-25.3600,-123.8300,-2.3000,-1.3200,-9.9500,0.0000,0.0000,-0.0000,1060.0000,1029.0000,1500.0000,2000.0000
556106.6950,2.0000,2000.0000,1469.0000,2000.0000,-138.0000,-59.0000,11.0000,1650.0000,-335.0000,2282.0000,0.4513,0.4581,-0.4215,0.6394,179.9500,-25.3600,-123.8300,-2.3000,-1.3200,-9.9500,0.0000,0.0000,-0.0000,1060.0000,1029.0000,1500.0000,2000.0000
556123.7650,2.0000,2000.0000,1469.0000,2000.0000,-139.0000,-64.0000,6.0000,1603.0000,-240.0000,2445.0000,0.4563,0.4537,-0.4393,0.6269,179.9100,-25.4000,-124.0400,-2.1100,-1.2500,-9.9800,0.0000,0.0000,-0.0000,1060.0000,1029.0000,1500.0000,2000.0000
556140.7920,2.0000,2000.0000,1469.0000,2000.0000,-138.0000,-70.0000,2.0000,1832.0000,-340.0000,2747.0000,0.4609,0.4501,-0.4571,0.6132,179.8800,-25.4300,-124.2500,-1.9400,-1.1600,-9.9800,0.0000,0.0000,-0.0000,1060.0000,1029.0000,1500.0000,2000.0000
556157.6310,2.0000,2000.0000,1469.0000,2000.0000,-140.0000,-75.0000,-2.0000,2229.0000,-383.0000,3179.0000,0.4653,0.4469,-0.4746,0.5988,179.8500,-25.4600,-124.4500,-1.7900,-1.0600,-10.0200,0.0000,0.0000,-0.0000,1060.0000,1029.0000,1500.0000,2000.0000
556174.4460,2.0000,2000.0000,1469.0000,2000.0000,-138.0000,-75.0000,-5.0000,2285.0000,-245.0000,3480.0000,0.4696,0.4438,-0.4917,0.5837,179.8300,-25.4900,-124.6700,-1.5900,-0.8900,-10.1000,0.0000,0.0000,-0.0000,1060.0000,1029.0000,1500.0000,2000.0000
556191.4630,2.0000,2000.0000,1469.0000,2000.0000,-140.0000,-78.0000,-7.0000,2120.0000,-410.0000,3555.0000,0.4736,0.4410,-0.5088,0.5677,179.8100,-25.5200,-124.8900,-1.4300,-0.7200,-10.1600,0.0000,0.0000,-0.0000,1060.0000,1029.0000,1500.0000,2000.0000
556208.5540,2.0000,2000.0000,1469.0000,2000.0000,-140.0000,-74.0000,-8.0000,2119.0000,-288.0000,3761.0000,0.4778,0.4378,-0.5255,0.5512,179.7900,-25.5400,-125.1000,-1.2900,-0.5400,-10.2000,0.0000,0.0000,-0.0000,1060.0000,1029.0000,1500.0000,2000.0000
556225.3650,2.0000,2000.0000,1469.0000,2000.0000,-138.0000,-76.0000,-8.0000,2259.0000,-248.0000,3939.0000,0.4813,0.4348,-0.5417,0.5346,179.7900,-25.5400,-125.1000,-1.2900,-0.5400,-10.2000,0.0000,0.0000,-0.0000,1060.0000,1029.0000,1500.0000,2000.0000
556242.4040,2.0000,2000.0000,1469.0000,2000.0000,-137.0000,-75.0000,-9.0000,2062.0000,-341.0000,3840.0000,0.4852,0.4313,-0.5572,0.5179,179.7800,-25.5600,-125.3100,-1.2000,-0.3600,-10.2400,0.0000,0.0000,-0.0000,1060.0000,1029.0000,1500.0000,2000.0000
556259.1680,2.0000,2000.0000,1469.0000,2000.0000,-135.0000,-76.0000,-7.0000,2036.0000,-772.0000,3531.0000,0.4882,0.4278,-0.5723,0.5011,179.7700,-25.5700,-125.5200,-1.1200,-0.1800,-10.2400,0.0000,0.0000,-0.0000,1060.0000,1029.0000,1500.0000,2000.0000
556276.2590,2.0000,2000.0000,1469.0000,2000.0000,-130.0000,-76.0000,-6.0000,2219.0000,-859.0000,3601.0000,0.4902,0.4244,-0.5874,0.4843,179.7700,-25.5800,-125.7400,-0.9600,0.0700,-10.2300,0.0000,0.0000,-0.0000,1060.0000,1029.0000,1500.0000,2000.0000
556293.2440,2.0000,2000.0000,1469.0000,2000.0000,-124.0000,-66.0000,-6.0000,2163.0000,-788.0000,3641.0000,0.4924,0.4206,-0.6012,0.4681,179.7700,-25.5900,-125.9500,-0.8400,0.3100,-10.2300,0.0000,0.0000,-0.0000,1060.0000,1029.0000,1500.0000,2000.0000
556309.9680,2.0000,2000.0000,1469.0000,2000.0000,-120.0000,-65.0000,-2.0000,2042.0000,-521.0000,3692.0000,0.4942,0.4165,-0.6141,0.4529,179.7700,-25.5900,-126.1700,-0.7500,0.5200,-10.2000,0.0000,0.0000,-0.0000,1060.0000,1029.0000,1500.0000,2000.0000
556326.9070,2.0000,2000.0000,1469.0000,2000.0000,-119.0000,-66.0000,0.0000,1978.0000,-592.0000,3404.0000,0.4955,0.4123,-0.6269,0.4377,179.7700,-25.5900,-126.1700,-0.7500,0.5200,-10.2000,0.0000,0.0000,-0.0000,1060.0000,1029.0000,1500.0000,2000.0000
556343.9360,2.0000,2000.0000,1469.0000,2000.0000,-118.0000,-67.0000,3.0000,2137.0000,-854.0000,3098.0000,0.4963,0.4076,-0.6397,0.4224,179.7700,-25.5900,-126.3700,-0.6900,0.7000,-10.1700,0.0000,0.0000,-0.0000,1060.0000,1029.0000,1500.0000,2000.0000
556360.8180,2.0000,2000.0000,1469.0000,2000.0000,-116.0000,-70.0000,4.0000,1798.0000,-737.0000,2922.0000,0.4964,0.4029,-0.6521,0.4074,179.7700,-25.5800,-126.5800,-0.6200,0.8400,-10.1500,0.0000,0.0000,-0.0000,1060.0000,1029.0000,1500.0000,2000.0000
556378.0560,2.0000,2000.0000,1469.0000,2000.0000,-117.0000,-70.0000,8.0000,1930.0000,-822.0000,2918.0000,0.4964,0.3975,-0.6647,0.3921,179.7800,-25.5700,-126.8000,-0.5500,1.0900,-10.1000,0.0000,0.0000,-0.0000,1060.0000,1029.0000,1500.0000,2000.0000
556395.0040,2.0000,2000.0000,1469.0000,2000.0000,-113.0000,-68.0000,9.0000,1777.0000,-560.0000,2950.0000,0.4957,0.3922,-0.6769,0.3771,179.7800,-25.5500,-127.0100,-0.5000,1.3100,-10.0400,0.0000,0.0000,-0.0000,1060.0000,1029.0000,1500.0000,2000.0000
556412.0640,2.0000,2000.0000,1469.0000,2000.0000,-107.0000,-67.0000,9.0000,1634.0000,-252.0000,3032.0000,0.4946,0.3871,-0.6886,0.3624,179.7900,-25.5300,-127.2200,-0.4900,1.4800,-9.9500,0.0000,0.0000,-0.0000,1060.0000,1029.0000,1500.0000,2000.0000
556428.9770,2.0000,2000.0000,1469.0000,2000.0000,-108.0000,-74.0000,11.0000,2078.0000,-227.0000,3325.0000,0.4931,0.3818,-0.7000,0.3481,179.7900,-25.5300,-127.2200,-0.4900,1.4800,-9.9500,0.0000,0.0000,-0.0000,1060.0000,1029.0000,1500.0000,2000.0000
556446.1210,2.0000,2000.0000,1469.0000,2000.0000,-110.0000,-79.0000,14.0000,2253.0000,-682.0000,3042.0000,0.4905,0.3763,-0.7119,0.3332,179.8000,-25.5100,-127.4200,-0.5300,1.6500,-9.8500,0.0000,0.0000,-0.0000,1060.0000,1029.0000,1500.0000,2000.0000
556462.8650,2.0000,2000.0000,1469.0000,2000.0000,-116.0000,-77.0000,16.0000,2194.0000,-632.0000,2942.0000,0.4879,0.3704,-0.7235,0.3183,179.8000,-25.4900,-127.6200,-0.5400,1.8400,-9.7800,0.0000,0.0000,-0.0000,1060.0000,1029.0000,1500.0000,2000.0000
556479.9070,2.0000,2000.0000,1469.0000,2000.0000,-117.0000,-85.0000,16.0000,1972.0000,-231.0000,3033.0000,0.4847,0.3639,-0.7358,0.3022,179.8100,-25.4500,-127.8300,-0.5600,2.1700,-9.7000,0.0000,0.0000,-0.0000,1060.0000,1029.0000,1500.0000,2000.0000
556496.6220,2.0000,2000.0000,1469.0000,2000.0000,-119.0000,-87.0000,18.0000,2299.0000,-446.0000,3181.0000,0.4809,0.3574,-0.7477,0.2861,179.8200,-25.4100,-128.0300,-0.5900,2.4400,-9.5900,0.0000,0.0000,-0.0000,1059.0000,1029.0000,1500.0000,2000.0000
556513.6640,2.0000,2000.0000,1470.0000,2000.0000,-113.0000,-97.0000,16.0000,2241.0000,-525.0000,3126.0000,0.4762,0.3510,-0.7599,0.2695,179.8200,-25.3600,-128.2200,-0.6500,2.6900,-9.4800,0.0000,0.0000,-0.0000,1059.0000,1029.0000,1500.0000,2000.0000
556530.4690,2.0000,2000.0000,1470.0000,2000.0000,-114.0000,-96.0000,16.0000,1999.0000,-529.0000,3031.0000,0.4706,0.3452,-0.7717,0.2529,179.8200,-25.3600,-128.2200,-0.6500,2.6900,-9.4800,0.0000,0.0000,-0.0000,1059.0000,1029.0000,1500.0000,2000.0000
556547.4910,2.0000,2000.0000,1470.0000,2000.0000,-116.0000,-101.0000,15.0000,2090.0000,-521.0000,3128.0000,0.4645,0.3390,-0.7834,0.2357,179.8300,-25.3100,-128.4200,-0.6900,2.9100,-9.3800,0.0000,0.0000,-0.0000,1059.0000,1029.0000,1500.0000,2000.0000
556564.2840,2.0000,2000.0000,1470.0000,2000.0000,-117.0000,-100.0000,13.0000,2461.0000,-407.0000,3445.0000,0.4583,0.3329,-0.7947,0.2183,179.8300,-25.2600,-128.6100,-0.7300,3.1100,-9.2500,0.0000,0.0000,-0.0000,1059.0000,1029.0000,1500.0000,2000.0000
556581.4450,2.0000,2000.0000,1470.0000,2000.0000,-115.0000,-101.0000,12.0000,2509.0000,-177.0000,3672.0000,0.4513,0.3267,-0.8059,0.2002,179.8300,-25.1900,-128.8100,-0.8100,3.4900,-9.1200,0.0000,0.0000,-0.0000,1059.0000,1029.0000,1500.0000,2000.0000
556598.3170,2.0000,2000.0000,1470.0000,2000.0000,-118.0000,-103.0000,13.0000,2496.0000,-24.0000,3809.0000,0.4446,0.3206,-0.8162,0.1825,179.8400,-25.1200,-129.0000,-0.9200,3.8100,-8.9700,0.0000,0.0000,-0.0000,1059.0000,1029.0000,1500.0000,2000.0000
556615.1480,2.0000,2000.0000,1457.0000,2000.0000,-115.0000,-106.0000,11.0000,2161.0000,-413.0000,3414.0000,0.4370,0.3143,-0.8266,0.1644,179.8400,-25.0400,-129.1900,-1.0200,4.0700,-8.7900,0.0000,0.0000,-0.0000,1078.0000,1035.0000,1500.0000,2000.0000
556631.9020,2.0000,2000.0000,1457.0000,2000.0000,-116.0000,-99.0000,11.0000,2238.0000,-537.0000,3369.0000,0.4296,0.3082,-0.8361,0.1463,179.8400,-25.0400,-129.1900,-1.0200,4.0700,-8.7900,0.0000,0.0000,-0.0000,1078.0000,1035.0000,1500.0000,2000.0000
556648.9200,2.0000,2000.0000,1457.0000,2000.0000,-115.0000,-98.0000,6.0000,2263.0000,-458.0000,3486.0000,0.4220,0.3021,-0.8452,0.1279,179.8400,-24.9700,-129.3700,-1.0800,4.2800,-8.6000,0.0000,0.0000,-0.0000,1078.0000,1035.0000,1500.0000,2000.0000
556665.6150,2.0000,2000.0000,1457.0000,2000.0000,-113.0000,-99.0000,7.0000,1841.0000,-391.0000,3256.0000,0.4144,0.2964,-0.8534,0.1101,179.8400,-24.8900,-129.5500,-1.1400,4.4900,-8.4200,0.0000,0.0000,-0.0000,1078.0000,1035.0000,1500.0000,2000.0000
556682.3580,2.0000,2000.0000,1457.0000,2000.0000,-112.0000,-100.0000,7.0000,1974.0000,-509.0000,3254.0000,0.4067,0.2904,-0.8613,0.0922,179.8400,-24.7900,-129.7300,-1.2200,4.7800,-8.2000,0.0000,0.0000,-0.0000,1078.0000,1035.0000,1500.0000,2000.0000
556698.9710,2.0000,2000.0000,1454.0000,2000.0000,-112.0000,-108.0000,6.0000,2174.0000,-683.0000,3107.0000,0.3982,0.2847,-0.8688,0.0743,179.8300,-24.6900,-129.9100,-1.2900,5.0200,-7.9700,0.0000,0.0000,-0.0000,1082.0000,1036.0000,1500.0000,2000.0000
556715.7970,2.0000,2000.0000,1454.0000,2000.0000,-113.0000,-107.0000,3.0000,1759.0000,-474.0000,3041.0000,0.3888,0.2788,-0.8763,0.0556,179.8300,-24.5900,-130.0800,-1.3400,5.2200,-7.7500,0.0000,0.0000,-0.0000,1082.0000,1036.0000,1500.0000,2000.0000
556732.5630,2.0000,2000.0000,1454.0000,2000.0000,-116.0000,-108.0000,5.0000,1729.0000,-271.0000,3189.0000,0.3797,0.2727,-0.8832,0.0367,179.8300,-24.5900,-130.0800,-1.3400,5.2200,-7.7500,0.0000,0.0000,-0.0000,1082.0000,1036.0000,1500.0000,2000.0000
556749.7760,2.0000,2000.0000,1454.0000,2000.0000,-116.0000,-107.0000,3.0000,2021.0000,-250.0000,3270.0000,0.3703,0.2663,-0.8897,0.0172,179.8300,-24.4900,-130.2500,-1.3900,5.3400,-7.4800,0.0000,0.0000,-0.0000,1082.0000,1036.0000,1500.0000,2000.0000
556766.5170,2.0000,2000.0000,1454.0000,2000.0000,-118.0000,-109.0000,3.0000,2342.0000,-365.0000,3338.0000,0.3605,0.2605,-0.8956,-0.0019,179.8200,-24.4000,-130.4100,-1.4800,5.4800,-7.2200,0.0000,0.0000,-0.0000,1082.0000,1036.0000,1500.0000,2000.0000
556783.4700,2.0000,2000.0000,1454.0000,2000.0000,-117.0000,-105.0000,1.0000,1955.0000,-409.0000,3180.0000,0.3507,0.2549,-0.9009,-0.0212,179.8100,-24.2700,-130.5700,-1.6300,5.8100,-6.9700,0.0000,0.0000,-0.0000,1082.0000,1036.0000,1500.0000,2000.0000
556800.2420,2.0000,2000.0000,1000.0000,1482.0000,-118.0000,-109.0000,0.0000,1849.0000,-354.0000,3223.0000,0.3407,0.2488,-0.9058,-0.0405,179.8000,-24.1400,-130.7300,-1.7500,6.0800,-6.7000,0.0000,0.0000,-0.0000,1945.0000,1075.0000,1500.0000,2000.0000
556817.0570,2.0000,2000.0000,1000.0000,1481.0000,-123.0000,-106.0000,-1.0000,1956.0000,-369.0000,3279.0000,0.3306,0.2426,-0.9101,-0.0603,179.7900,-24.0200,-130.8800,-1.8400,6.2800,-6.4100,0.0000,0.0000,-0.0000,1945.0000,1075.0000,1500.0000,2000.0000
556834.0310,2.0000,2000.0000,1000.0000,1481.0000,-117.0000,-102.0000,-3.0000,2036.0000,-196.0000,3501.0000,0.3206,0.2366,-0.9137,-0.0801,179.7900,-24.0200,-130.8800,-1.8400,6.2800,-6.4100,0.0000,0.0000,-0.0000,1945.0000,1075.0000,1500.0000,2000.0000
556851.2960,2.0000,2000.0000,1000.0000,1481.0000,-86.0000,-118.0000,-7.0000,2170.0000,-119.0000,3471.0000,0.3086,0.2315,-0.9173,-0.0983,179.7700,-23.9000,-131.0200,-1.9500,6.4300,-6.1100,0.0000,0.0000,-0.0000,1945.0000,1075.0000,1500.0000,2000.0000
556868.3070,2.0000,2000.0000,1000.0000,1481.0000,-50.0000,-140.0000,-15.0000,2140.0000,-644.0000,2731.0000,0.2932,0.2288,-0.9215,-0.1124,179.7600,-23.7800,-131.1600,-2.0900,6.5500,-5.7900,0.0000,0.0000,-0.0000,1945.0000,1075.0000,1500.0000,2000.0000
556884.8970,2.0000,2000.0000,1000.0000,1481.0000,-18.0000,-135.0000,-23.0000,1865.0000,-588.0000,2677.0000,0.2759,0.2285,-0.9257,-0.1219,179.7300,-23.6200,-131.3000,-2.2400,6.7700,-5.5000,0.0000,0.0000,-0.0000,1945.0000,1075.0000,1500.0000,2000.0000
556901.9360,2.0000,2000.0000,1022.0000,1978.0000,8.0000,-132.0000,-32.0000,2194.0000,-349.0000,3430.0000,0.2573,0.2305,-0.9297,-0.1281,179.7100,-23.4800,-131.4300,-2.3500,6.9400,-5.2000,0.0000,0.0000,-0.0000,1499.0000,1022.0000,1500.0000,2000.0000
556918.7660,2.0000,2000.0000,1022.0000,1978.0000,31.0000,-125.0000,-38.0000,2354.0000,-519.0000,3600.0000,0.2386,0.2341,-0.9333,-0.1311,179.6800,-23.3400,-131.5500,-2.5000,7.0600,-4.8400,0.0000,0.0000,-0.0000,1499.0000,1022.0000,1500.0000,2000.0000
556935.4780,2.0000,2000.0000,1022.0000,1978.0000,43.0000,-140.0000,-43.0000,2246.0000,-731.0000,3140.0000,0.2182,0.2390,-0.9370,-0.1318,179.6600,-23.2100,-131.6700,-2.6100,7.1900,-4.4700,0.0000,0.0000,-0.0000,1499.0000,1022.0000,1500.0000,2000.0000
556952.5840,2.0000,2000.0000,1022.0000,1978.0000,31.0000,-145.0000,-46.0000,2095.0000,-525.0000,2987.0000,0.1958,0.2446,-0.9403,-0.1328,179.6600,-23.2100,-131.6700,-2.6100,7.1900,-4.4700,0.0000,0.0000,-0.0000,1499.0000,1022.0000,1500.0000,2000.0000
556969.6240,2.0000,2000.0000,1022.0000,1978.0000,14.0000,-155.0000,-46.0000,1897.0000,-95.0000,3137.0000,0.1734,0.2497,-0.9429,-0.1362,179.6300,-23.0700,-131.7800,-2.6900,7.3100,-4.1300,0.0000,0.0000,-0.0000,1499.0000,1022.0000,1500.0000,2000.0000
556986.6780,2.0000,2000.0000,1033.0000,1971.0000,5.0000,-174.0000,-46.0000,1571.0000,-271.0000,2832.0000,0.1489,0.2538,-0.9451,-0.1422,179.5900,-22.9000,-131.8800,-2.8400,7.4900,-3.7600,0.0000,0.0000,-0.0000,1487.0000,1058.0000,1500.0000,2000.0000
557003.7240,2.0000,2000.0000,1070.0000,1954.0000,-5.0000,-186.0000,-42.0000,1841.0000,-628.0000,3288.0000,0.1229,0.2570,-0.9468,-0.1500,179.5500,-22.7400,-131.9800,-2.9200,7.6300,-3.3800,0.0000,0.0000,-0.0000,1487.0000,1058.0000,1500.0000,2000.0000
557020.6610,2.0000,2000.0000,1070.0000,1954.0000,-9.0000,-185.0000,-42.0000,2071.0000,-528.0000,4152.0000,0.0963,0.2593,-0.9478,-0.1587,179.5100,-22.5800,-132.0700,-2.9900,7.7500,-2.9200,0.0000,0.0000,-0.0000,1487.0000,1058.0000,1500.0000,2000.0000
557037.5230,2.0000,2000.0000,1070.0000,1954.0000,-8.0000,-190.0000,-41.0000,2381.0000,-617.0000,4831.0000,0.0692,0.2609,-0.9481,-0.1679,179.4700,-22.4300,-132.1500,-3.1000,7.8300,-2.3500,0.0000,0.0000,-0.0000,1487.0000,1058.0000,1500.0000,2000.0000
557054.3730,2.0000,2000.0000,1070.0000,1954.0000,-8.0000,-189.0000,-40.0000,2125.0000,-563.0000,4853.0000,0.0426,0.2629,-0.9476,-0.1765,179.4700,-22.4300,-132.1500,-3.1000,7.8300,-2.3500,0.0000,0.0000,-0.0000,1487.0000,1058.0000,1500.0000,2000.0000
557070.9420,2.0000,2000.0000,1070.0000,1954.0000,-11.0000,-185.0000,-39.0000,2143.0000,-528.0000,5158.0000,0.0165,0.2645,-0.9463,-0.1851,179.4300,-22.2800,-132.2100,-3.1900,7.8900,-1.7600,0.0000,0.0000,-0.0000,1487.0000,1058.0000,1500.0000,2000.0000
557087.6880,2.0000,2000.0000,1000.0000,1579.0000,-8.0000,-181.0000,-38.0000,2087.0000,-666.0000,5149.0000,-0.0094,0.2657,-0.9444,-0.1936,179.3800,-22.1000,-132.2700,-3.3200,8.0000,-1.1200,0.0000,0.0000,-0.0000,1874.0000,1085.0000,1500.0000,2000.0000
557104.4820,2.0000,2000.0000,1000.0000,1542.0000,-14.0000,-176.0000,-33.0000,2467.0000,-835.0000,5747.0000,-0.0346,0.2664,-0.9418,-0.2019,179.3300,-21.9200,-132.3100,-3.4000,8.0700,-0.4500,0.0000,0.0000,-0.0000,1874.0000,1085.0000,1500.0000,2000.0000
557121.1130,2.0000,2000.0000,1000.0000,1542.0000,-12.0000,-165.0000,-31.0000,2282.0000,-824.0000,5670.0000,-0.0581,0.2664,-0.9388,-0.2105,179.2700,-21.7500,-132.3400,-3.4500,8.1000,0.2500,0.0000,0.0000,-0.0000,1874.0000,1085.0000,1500.0000,2000.0000
557137.7800,2.0000,2000.0000,1000.0000,1542.0000,-2.0000,-143.0000,-31.0000,2121.0000,-713.0000,5572.0000,-0.0798,0.2665,-0.9356,-0.2175,179.2700,-21.7500,-132.3400,-3.4500,8.1000,0.2500,0.0000,0.0000,-0.0000,1874.0000,1085.0000,1500.0000,2000.0000
557155.0750,2.0000,2000.0000,1000.0000,1542.0000,16.0000,-130.0000,-31.0000,2183.0000,-766.0000,5413.0000,-0.1006,0.2671,-0.9323,-0.2219,179.2300,-21.6000,-132.3500,-3.4500,8.0900,0.9200,0.0000,0.0000,-0.0000,1874.0000,1085.0000,1500.0000,2000.0000
557171.8220,2.0000,2000.0000,1000.0000,1542.0000,29.0000,-115.0000,-26.0000,2056.0000,-918.0000,4940.0000,-0.1185,0.2678,-0.9297,-0.2233,179.1700,-21.4400,-132.3600,-3.4700,8.0800,1.5800,0.0000,0.0000,-0.0000,1874.0000,1085.0000,1500.0000,2000.0000
557188.7580,2.0000,2000.0000,1000.0000,1542.0000,40.0000,-96.0000,-25.0000,1882.0000,-832.0000,4758.0000,-0.1348,0.2682,-0.9276,-0.2225,179.1000,-21.2400,-132.3500,-3.5600,8.1100,2.2200,0.0000,0.0000,-0.0000,1874.0000,1085.0000,1500.0000,2000.0000
557205.5810,2.0000,2000.0000,1480.0000,2000.0000,51.0000,-80.0000,-28.0000,1810.0000,-842.0000,4135.0000,-0.1490,0.2691,-0.9259,-0.2191,179.0400,-21.0600,-132.3400,-3.6000,8.1300,2.8000,0.0000,0.0000,-0.0000,1049.0000,1029.0000,1500.0000,2000.0000
557222.2480,2.0000,2000.0000,1480.0000,2000.0000,56.0000,-79.0000,-28.0000,1625.0000,-924.0000,3463.0000,-0.1625,0.2700,-0.9245,-0.2145,178.9800,-20.8900,-132.3100,-3.6200,8.1600,3.3300,0.0000,0.0000,-0.0000,1049.0000,1029.0000,1500.0000,2000.0000
557239.4070,2.0000,2000.0000,1480.0000,2000.0000,36.0000,-60.0000,-28.0000,1827.0000,-801.0000,3214.0000,-0.1746,0.2714,-0.9229,-0.2102,178.9800,-20.8900,-132.3100,-3.6200,8.1600,3.3300,0.0000,0.0000,-0.0000,1049.0000,1029.0000,1500.0000,2000.0000
557256.2900,2.0000,2000.0000,1480.0000,2000.0000,1.0000,-63.0000,-21.0000,1814.0000,-440.0000,2997.0000,-0.1840,0.2736,-0.9205,-0.2096,178.9200,-20.7300,-132.2800,-3.6300,8.2000,3.8000,0.0000,0.0000,-0.0000,1049.0000,1029.0000,1500.0000,2000.0000
557273.2930,2.0000,2000.0000,1480.0000,2000.0000,-32.0000,-74.0000,-16.0000,1151.0000,-616.0000,2399.0000,-0.1933,0.2754,-0.9170,-0.2143,178.8600,-20.5600,-132.2400,-3.6500,8.2600,4.2400,0.0000,0.0000,-0.0000,1049.0000,1029.0000,1500.0000,2000.0000
557290.1490,2.0000,2000.0000,1480.0000,2000.0000,-63.0000,-87.0000,-8.0000,1171.0000,-537.0000,2309.0000,-0.2022,0.2768,-0.9122,-0.2243,178.7800,-20.3600,-132.2000,-3.6200,8.3800,4.6300,0.0000,0.0000,-0.0000,1049.0000,1029.0000,1500.0000,2000.0000
557307.1760,2.0000,2000.0000,1000.0000,1471.0000,-87.0000,-98.0000,-3.0000,1545.0000,-561.0000,2530.0000,-0.2116,0.2776,-0.9063,-0.2384,178.7100,-20.1700,-132.1500,-3.5900,8.4600,5.0100,0.0000,0.0000,-0.0000,1957.0000,1073.0000,1500.0000,2000.0000
557324.2680,2.0000,2000.0000,1000.0000,1471.0000,-107.0000,-103.0000,-2.0000,1960.0000,-660.0000,2903.0000,-0.2212,0.2780,-0.8989,-0.2563,178.6400,-19.9800,-132.0900,-3.5800,8.5100,5.4400,0.0000,0.0000,-0.0000,1957.0000,1073.0000,1500.0000,2000.0000
557341.0160,2.0000,2000.0000,1000.0000,1471.0000,-95.0000,-124.0000,-1.0000,2137.0000,-537.0000,3000.0000,-0.2312,0.2779,-0.8910,-0.2747,178.5800,-19.8100,-132.0200,-3.5800,8.5300,5.9200,0.0000,0.0000,-0.0000,1957.0000,1073.0000,1500.0000,2000.0000
557357.9370,2.0000,2000.0000,1000.0000,1471.0000,-61.0000,-137.0000,-7.0000,2004.0000,-297.0000,3184.0000,-0.2447,0.2770,-0.8826,-0.2905,178.5800,-19.8100,-132.0200,-3.5800,8.5300,5.9200,0.0000,0.0000,-0.0000,1957.0000,1073.0000,1500.0000,2000.0000
557374.7250,2.0000,2000.0000,1000.0000,1471.0000,-15.0000,-156.0000,-19.0000,2003.0000,-329.0000,3764.0000,-0.2625,0.2747,-0.8745,-0.3013,178.5100,-19.6300,-131.9400,-3.5500,8.5500,6.3700,0.0000,0.0000,-0.0000,1957.0000,1073.0000,1500.0000,2000.0000
557391.6000,2.0000,2000.0000,1000.0000,1895.0000,27.0000,-148.0000,-32.0000,1831.0000,-329.0000,4335.0000,-0.2836,0.2717,-0.8672,-0.3060,178.4400,-19.4100,-131.8600,-3.4300,8.6100,6.8400,0.0000,0.0000,-0.0000,1133.0000,1024.0000,1500.0000,2000.0000
557408.4970,2.0000,2000.0000,1391.0000,2000.0000,62.0000,-153.0000,-39.0000,1986.0000,-337.0000,5282.0000,-0.3055,0.2687,-0.8611,-0.3050,178.3800,-19.2000,-131.7700,-3.2700,8.5800,7.3700,0.0000,0.0000,-0.0000,1133.0000,1024.0000,1500.0000,2000.0000
557425.5050,2.0000,2000.0000,1391.0000,2000.0000,86.0000,-152.0000,-45.0000,1964.0000,-542.0000,5621.0000,-0.3296,0.2647,-0.8553,-0.2997,178.3200,-19.0100,-131.6700,-3.0700,8.4900,7.9600,0.0000,0.0000,-0.0000,1133.0000,1024.0000,1500.0000,2000.0000
557442.5400,2.0000,2000.0000,1391.0000,2000.0000,74.0000,-150.0000,-46.0000,1665.0000,-574.0000,5355.0000,-0.3542,0.2604,-0.8490,-0.2932,178.2700,-18.8300,-131.5500,-2.8400,8.3900,8.5200,0.0000,0.0000,-0.0000,1133.0000,1024.0000,1500.0000,2000.0000
557459.5690,2.0000,2000.0000,1391.0000,2000.0000,32.0000,-155.0000,-39.0000,1772.0000,-359.0000,5688.0000,-0.3763,0.2577,-0.8412,-0.2906,178.2700,-18.8300,-131.5500,-2.8400,8.3900,8.5200,0.0000,0.0000,-0.0000,1133.0000,1024.0000,1500.0000,2000.0000
557476.3240,2.0000,2000.0000,1391.0000,2000.0000,-9.0000,-162.0000,-28.0000,1812.0000,-862.0000,5787.0000,-0.3973,0.2556,-0.8308,-0.2941,178.2200,-18.6400,-131.4300,-2.6300,8.3400,9.0800,0.0000,0.0000,-0.0000,1133.0000,1024.0000,1500.0000,2000.0000
557493.0570,2.0000,2000.0000,1492.0000,1920.0000,-42.0000,-166.0000,-17.0000,2019.0000,-1155.0000,6115.0000,-0.4168,0.2537,-0.8188,-0.3024,178.1600,-18.4000,-131.2900,-2.4200,8.3700,9.6500,0.0000,0.0000,-0.0000,1300.0000,1297.0000,1500.0000,2000.0000
557510.0620,2.0000,2000.0000,1497.0000,1901.0000,-56.0000,-170.0000,-9.0000,1864.0000,-1012.0000,6557.0000,-0.4353,0.2519,-0.8052,-0.3143,178.1100,-18.1900,-131.1400,-2.1700,8.3400,10.2300,0.0000,0.0000,-0.0000,1300.0000,1297.0000,1500.0000,2000.0000
557526.5760,2.0000,2000.0000,1497.0000,1901.0000,-68.0000,-167.0000,-3.0000,1713.0000,-1007.0000,7054.0000,-0.4526,0.2496,-0.7909,-0.3277,178.0700,-17.9900,-130.9800,-1.9100,8.2300,10.8000,0.0000,0.0000,-0.0000,1300.0000,1297.0000,1500.0000,2000.0000
557543.3940,2.0000,2000.0000,1497.0000,1901.0000,-81.0000,-156.0000,4.0000,1839.0000,-878.0000,7772.0000,-0.4681,0.2477,-0.7759,-0.3429,178.0300,-17.8000,-130.8000,-1.6100,8.0200,11.3400,0.0000,0.0000,-0.0000,1300.0000,1297.0000,1500.0000,2000.0000
557560.4400,2.0000,2000.0000,1497.0000,1901.0000,-98.0000,-142.0000,9.0000,1802.0000,-855.0000,8254.0000,-0.4810,0.2468,-0.7605,-0.3597,178.0300,-17.8000,-130.8000,-1.6100,8.0200,11.3400,0.0000,0.0000,-0.0000,1300.0000,1297.0000,1500.0000,2000.0000
557577.3830,2.0000,2000.0000,1497.0000,1901.0000,-115.0000,-126.0000,16.0000,1745.0000,-692.0000,8313.0000,-0.4908,0.2468,-0.7452,-0.3781,178.0000,-17.6100,-130.6100,-1.3300,7.7100,11.9000,0.0000,0.0000,-0.0000,1300.0000,1297.0000,1500.0000,2000.0000
557594.3510,2.0000,2000.0000,1585.0000,1959.0000,-131.0000,-114.0000,21.0000,1716.0000,-686.0000,8122.0000,-0.4980,0.2477,-0.7296,-0.3979,177.9600,-17.4200,-130.4100,-1.1300,7.3300,12.3900,0.0000,0.0000,-0.0000,1228.0000,1312.0000,1500.0000,2000.0000
557611.1640,2.0000,2000.0000,1585.0000,1959.0000,-145.0000,-101.0000,26.0000,1659.0000,-571.0000,8056.0000,-0.5026,0.2496,-0.7140,-0.4187,177.9200,-17.2400,-130.2000,-0.9500,6.9500,12.8500,0.0000,0.0000,-0.0000,1228.0000,1312.0000,1500.0000,2000.0000
557627.9910,2.0000,2000.0000,1585.0000,1959.0000,-164.0000,-88.0000,29.0000,1506.0000,-548.0000,7918.0000,-0.5045,0.2528,-0.6980,-0.4408,177.8900,-17.0700,-129.9700,-0.7900,6.5400,13.2600,0.0000,0.0000,-0.0000,1228.0000,1312.0000,1500.0000,2000.0000
557645.0210,2.0000,2000.0000,1585.0000,1959.0000,-181.0000,-67.0000,29.0000,1391.0000,-487.0000,7538.0000,-0.5034,0.2584,-0.6814,-0.4643,177.8600,-16.9000,-129.7400,-0.7200,6.1600,13.6000,0.0000,0.0000,-0.0000,1228.0000,1312.0000,1500.0000,2000.0000
557661.6960,2.0000,2000.0000,1585.0000,1959.0000,-196.0000,-55.0000,29.0000,1403.0000,-394.0000,7111.0000,-0.4993,0.2664,-0.6644,-0.4881,177.8600,-16.9000,-129.7400,-0.7200,6.1600,13.6000,0.0000,0.0000,-0.0000,1228.0000,1312.0000,1500.0000,2000.0000
557678.2820,2.0000,2000.0000,1585.0000,1959.0000,-207.0000,-54.0000,27.0000,1139.0000,-373.0000,6381.0000,-0.4939,0.2751,-0.6465,-0.5123,177.8100,-16.7300,-129.5000,-0.8100,5.8400,13.9000,0.0000,0.0000,-0.0000,1228.0000,1312.0000,1500.0000,2000.0000
557694.9670,2.0000,2000.0000,1585.0000,1959.0000,-223.0000,-46.0000,23.0000,1026.0000,-323.0000,5933.0000,-0.4872,0.2852,-0.6272,-0.5366,177.7600,-16.5600,-129.2600,-0.9700,5.6000,14.1400,0.0000,0.0000,-0.0000,1228.0000,1312.0000,1500.0000,2000.0000
557711.7110,2.0000,2000.0000,1530.0000,2000.0000,-236.0000,-41.0000,20.0000,676.0000,-238.0000,5306.0000,-0.4794,0.2964,-0.6061,-0.5613,177.7000,-16.3900,-129.0200,-1.2000,5.4500,14.3300,0.0000,0.0000,-0.0000,1117.0000,1147.0000,1500.0000,2000.0000
557728.5220,2.0000,2000.0000,1530.0000,2000.0000,-244.0000,-47.0000,15.0000,492.0000,-220.0000,4898.0000,-0.4705,0.3086,-0.5833,-0.5858,177.6400,-16.2400,-128.7900,-1.5000,5.3900,14.4500,0.0000,0.0000,-0.0000,1117.0000,1147.0000,1500.0000,2000.0000
557745.0980,2.0000,2000.0000,1530.0000,2000.0000,-251.0000,-49.0000,11.0000,987.0000,-136.0000,5128.0000,-0.4614,0.3207,-0.5590,-0.6098,177.6400,-16.2400,-128.7900,-1.5000,5.3900,14.4500,0.0000,0.0000,-0.0000,1117.0000,1147.0000,1500.0000,2000.0000
557761.8310,2.0000,2000.0000,1530.0000,2000.0000,-251.0000,-55.0000,5.0000,1302.0000,45.0000,5325.0000,-0.4521,0.3328,-0.5324,-0.6335,177.5700,-16.0800,-128.5700,-1.8300,5.3800,14.5500,0.0000,0.0000,-0.0000,1117.0000,1147.0000,1500.0000,2000.0000
557778.4480,2.0000,2000.0000,1530.0000,2000.0000,-254.0000,-62.0000,-2.0000,954.0000,-14.0000,5324.0000,-0.4435,0.3442,-0.5048,-0.6558,177.4900,-15.9200,-128.3400,-2.1600,5.2600,14.6700,0.0000,0.0000,-0.0000,1117.0000,1147.0000,1500.0000,2000.0000
557795.0920,2.0000,2000.0000,1404.0000,2000.0000,-255.0000,-63.0000,-9.0000,833.0000,-60.0000,5514.0000,-0.4349,0.3552,-0.4757,-0.6770,177.3900,-15.7400,-128.1100,-2.4400,5.0900,14.7400,0.0000,0.0000,-0.0000,1124.0000,1027.0000,1500.0000,2000.0000
557812.0320,2.0000,2000.0000,1403.0000,2000.0000,-251.0000,-52.0000,-14.0000,858.0000,89.0000,5705.0000,-0.4264,0.3663,-0.4455,-0.6969,177.2900,-15.5800,-127.8900,-2.7300,4.9300,14.7400,0.0000,0.0000,-0.0000,1124.0000,1027.0000,1500.0000,2000.0000
557829.0070,2.0000,2000.0000,1403.0000,2000.0000,-241.0000,-59.0000,-21.0000,945.0000,-92.0000,5941.0000,-0.4181,0.3772,-0.4150,-0.7147,177.1900,-15.4200,-127.6800,-3.0300,4.7900,14.7400,0.0000,0.0000,-0.0000,1124.0000,1027.0000,1500.0000,2000.0000
557845.8290,2.0000,2000.0000,1403.0000,2000.0000,-216.0000,-74.0000,-24.0000,826.0000,-580.0000,5940.0000,-0.4113,0.3854,-0.3851,-0.7307,177.1900,-15.4200,-127.6800,-3.0300,4.7900,14.7400,0.0000,0.0000,-0.0000,1124.0000,1027.0000,1500.0000,2000.0000
557862.7330,2.0000,2000.0000,1403.0000,2000.0000,-194.0000,-85.0000,-28.0000,822.0000,-600.0000,5936.0000,-0.4065,0.3904,-0.3560,-0.7454,177.0700,-15.2700,-127.4600,-3.2900,4.5700,14.7300,0.0000,0.0000,-0.0000,1124.0000,1027.0000,1500.0000,2000.0000
557879.2520,2.0000,2000.0000,1403.0000,2000.0000,-176.0000,-99.0000,-29.0000,658.0000,-502.0000,6052.0000,-0.4034,0.3928,-0.3288,-0.7582,176.9500,-15.1100,-127.2200,-3.5200,4.2900,14.7000,0.0000,0.0000,-0.0000,1124.0000,1027.0000,1500.0000,2000.0000
557896.0740,2.0000,2000.0000,1388.0000,2000.0000,-163.0000,-111.0000,-27.0000,679.0000,-642.0000,6704.0000,-0.4014,0.3921,-0.3018,-0.7707,176.8300,-14.9700,-126.9900,-3.7500,4.0400,14.6500,0.0000,0.0000,-0.0000,1145.0000,1033.0000,1500.0000,2000.0000
557913.0220,2.0000,2000.0000,1388.0000,2000.0000,-153.0000,-120.0000,-24.0000,650.0000,-761.0000,7322.0000,-0.3999,0.3895,-0.2752,-0.7827,176.7200,-14.8500,-126.7500,-3.9800,3.7700,14.5400,0.0000,0.0000,-0.0000,1145.0000,1033.0000,1500.0000,2000.0000
557929.7760,2.0000,2000.0000,1388.0000,2000.0000,-148.0000,-127.0000,-17.0000,827.0000,-930.0000,8171.0000,-0.3984,0.3847,-0.2494,-0.7944,176.6100,-14.7400,-126.5200,-4.2300,3.4500,14.3700,0.0000,0.0000,-0.0000,1145.0000,1033.0000,1500.0000,2000.0000
557946.4970,2.0000,2000.0000,1388.0000,2000.0000,-136.0000,-135.0000,-11.0000,836.0000,-918.0000,8688.0000,-0.3967,0.3782,-0.2244,-0.8058,176.6100,-14.7400,-126.5200,-4.2300,3.4500,14.3700,0.0000,0.0000,-0.0000,1145.0000,1033.0000,1500.0000,2000.0000
557963.1000,2.0000,2000.0000,1388.0000,2000.0000,-131.0000,-141.0000,-3.0000,968.0000,-985.0000,9185.0000,-0.3943,0.3699,-0.2001,-0.8171,176.4900,-14.6400,-126.2800,-4.5200,2.9900,14.1300,0.0000,0.0000,-0.0000,1145.0000,1033.0000,1500.0000,2000.0000
557979.7880,2.0000,2000.0000,1388.0000,2000.0000,-126.0000,-145.0000,3.0000,1196.0000,-1102.0000,9994.0000,-0.3915,0.3599,-0.1764,-0.8283,176.3700,-14.5500,-126.0300,-4.8300,2.4600,13.8400,0.0000,0.0000,-0.0000,1145.0000,1033.0000,1500.0000,2000.0000
557996.3880,2.0000,2000.0000,1312.0000,2000.0000,-119.0000,-144.0000,9.0000,1120.0000,-1079.0000,10678.0000,-0.3882,0.3491,-0.1539,-0.8389,176.2500,-14.4800,-125.7900,-5.1700,1.9400,13.4600,0.0000,0.0000,-0.0000,1216.0000,1028.0000,1500.0000,2000.0000
558013.2750,2.0000,2000.0000,1312.0000,2000.0000,-119.0000,-137.0000,15.0000,1144.0000,-1207.0000,11285.0000,-0.3840,0.3378,-0.1317,-0.8492,176.1200,-14.4200,-125.5600,-5.5200,1.4600,12.9900,0.0000,0.0000,-0.0000,1216.0000,1028.0000,1500.0000,2000.0000
558030.0840,2.0000,2000.0000,1312.0000,2000.0000,-110.0000,-133.0000,19.0000,1175.0000,-1154.0000,11600.0000,-0.3791,0.3269,-0.1107,-0.8586,176.0000,-14.3800,-125.3400,-5.8900,1.0200,12.4200,0.0000,0.0000,-0.0000,1216.0000,1028.0000,1500.0000,2000.0000
558046.8180,2.0000,2000.0000,1312.0000,2000.0000,-101.0000,-137.0000,21.0000,1154.0000,-945.0000,11327.0000,-0.3739,0.3153,-0.0911,-0.8675,176.0000,-14.3800,-125.3400,-5.8900,1.0200,12.4200,0.0000,0.0000,-0.0000,1216.0000,1028.0000,1500.0000,2000.0000
558063.6090,2.0000,2000.0000,1312.0000,2000.0000,-98.0000,-135.0000,23.0000,1196.0000,-929.0000,11546.0000,-0.3683,0.3029,-0.0719,-0.8761,175.8600,-14.3400,-125.1200,-6.2600,0.5900,11.8200,0.0000,0.0000,-0.0000,1216.0000,1028.0000,1500.0000,2000.0000
558080.2120,2.0000,2000.0000,1312.0000,2000.0000,-97.0000,-135.0000,23.0000,1175.0000,-754.0000,12004.0000,-0.3627,0.2905,-0.0536,-0.8838,175.7100,-14.3100,-124.9100,-6.6300,0.1700,11.1900,0.0000,0.0000,-0.0000,1216.0000,1028.0000,1500.0000,2000.0000
558097.2570,2.0000,2000.0000,1561.0000,1719.0000,-98.0000,-134.0000,22.0000,1174.0000,-735.0000,12275.0000,-0.3567,0.2780,-0.0343,-0.8912,175.5600,-14.2900,-124.7200,-6.9800,-0.1500,10.4800,0.0000,0.0000,-0.0000,1359.0000,1420.0000,1500.0000,2000.0000
558113.7710,2.0000,2000.0000,1561.0000,1719.0000,-102.0000,-135.0000,22.0000,1133.0000,-660.0000,12079.0000,-0.3509,0.2655,-0.0153,-0.8979,175.4100,-14.2800,-124.5400,-7.3100,-0.3800,9.7300,0.0000,0.0000,-0.0000,1359.0000,1420.0000,1500.0000,2000.0000
558130.4680,2.0000,2000.0000,1561.0000,1719.0000,-103.0000,-128.0000,20.0000,1239.0000,-683.0000,12001.0000,-0.3449,0.2533,0.0042,-0.9038,175.4100,-14.2800,-124.5400,-7.3100,-0.3800,9.7300,0.0000,0.0000,-0.0000,1359.0000,1420.0000,1500.0000,2000.0000
558147.5050,2.0000,2000.0000,1561.0000,1719.0000,-110.0000,-101.0000,16.0000,1339.0000,-611.0000,12633.0000,-0.3388,0.2430,0.0236,-0.9086,175.2600,-14.2700,-124.3900,-7.5700,-0.5200,8.9900,0.0000,0.0000,-0.0000,1359.0000,1420.0000,1500.0000,2000.0000
558164.2050,2.0000,2000.0000,1561.0000,1719.0000,-134.0000,-65.0000,12.0000,1399.0000,-739.0000,13235.0000,-0.3324,0.2382,0.0432,-0.9115,175.1000,-14.2700,-124.2400,-7.9400,-0.7100,8.2200,0.0000,0.0000,-0.0000,1359.0000,1420.0000,1500.0000,2000.0000
558181.2010,2.0000,2000.0000,1561.0000,1719.0000,-163.0000,-34.0000,10.0000,1202.0000,-588.0000,12081.0000,-0.3255,0.2391,0.0654,-0.9125,174.9200,-14.2800,-124.0900,-8.3900,-0.9200,7.3600,0.0000,0.0000,-0.0000,1359.0000,1420.0000,1500.0000,2000.0000
558198.3350,2.0000,2000.0000,1047.0000,1000.0000,-180.0000,-15.0000,8.0000,980.0000,-692.0000,10527.0000,-0.3180,0.2443,0.0896,-0.9117,174.7400,-14.2900,-123.9700,-8.7600,-1.0300,6.5800,0.0000,0.0000,-0.0000,1991.0000,1539.0000,1500.0000,2000.0000
558215.2860,2.0000,2000.0000,1047.0000,1000.0000,-195.0000,-3.0000,7.0000,536.0000,-483.0000,8648.0000,-0.3104,0.2518,0.1150,-0.9094,174.5700,-14.3000,-123.8600,-9.0200,-1.0600,5.9800,0.0000,0.0000,-0.0000,1991.0000,1539.0000,1500.0000,2000.0000
558232.3650,2.0000,2000.0000,1047.0000,1000.0000,-178.0000,3.0000,4.0000,523.0000,-543.0000,7225.0000,-0.3027,0.2606,0.1405,-0.9059,174.4000,-14.3100,-123.7600,-9.1700,-1.0200,5.5500,0.0000,0.0000,-0.0000,1991.0000,1539.0000,1500.0000,2000.0000
558249.1860,2.0000,2000.0000,1047.0000,1000.0000,-101.0000,-9.0000,-5.0000,418.0000,-522.0000,5754.0000,-0.2972,0.2666,0.1596,-0.9028,174.4000,-14.3100,-123.7600,-9.1700,-1.0200,5.5500,0.0000,0.0000,-0.0000,1991.0000,1539.0000,1500.0000,2000.0000
558265.9620,2.0000,2000.0000,1047.0000,1000.0000,24.0000,-16.0000,-17.0000,132.0000,-847.0000,5222.0000,-0.2968,0.2664,0.1660,-0.9019,174.2000,-14.3400,-123.6500,-9.4900,-1.1900,5.2900,0.0000,0.0000,-0.0000,1991.0000,1539.0000,1500.0000,2000.0000
558282.7950,2.0000,2000.0000,1047.0000,1000.0000,174.0000,7.0000,-31.0000,172.0000,-960.0000,5572.0000,-0.3040,0.2607,0.1539,-0.9033,173.9800,-14.3800,-123.5500,-9.8500,-1.4700,5.0900,0.0000,0.0000,-0.0000,1991.0000,1539.0000,1500.0000,2000.0000
558299.6000,2.0000,2000.0000,2000.0000,1679.0000,345.0000,48.0000,-37.0000,104.0000,-882.0000,5416.0000,-0.3187,0.2519,0.1197,-0.9059,173.7700,-14.4300,-123.4400,-10.1700,-1.7700,4.8600,0.0000,0.0000,-0.0000,1097.0000,1726.0000,1500.0000,2000.0000
558316.3270,2.0000,2000.0000,2000.0000,1679.0000,486.0000,97.0000,-39.0000,-108.0000,-438.0000,3937.0000,-0.3396,0.2405,0.0624,-0.9072,173.5500,-14.4800,-123.3500,-10.4100,-2.0800,4.6500,0.0000,0.0000,-0.0000,1097.0000,1726.0000,1500.0000,2000.0000
558333.0540,2.0000,2000.0000,2000.0000,1679.0000,557.0000,136.0000,-35.0000,143.0000,-369.0000,1905.0000,-0.3624,0.2290,-0.0125,-0.9034,173.5500,-14.4800,-123.3500,-10.4100,-2.0800,4.6500,0.0000,0.0000,-0.0000,1097.0000,1726.0000,1500.0000,2000.0000
558349.8110,2.0000,2000.0000,2000.0000,1679.0000,523.0000,171.0000,-22.0000,82.0000,-150.0000,-1281.0000,-0.3826,0.2203,-0.0924,-0.8925,173.3500,-14.5400,-123.2600,-10.5100,-2.4100,4.6100,0.0000,0.0000,-0.0000,1097.0000,1726.0000,1500.0000,2000.0000
558366.5260,2.0000,2000.0000,2000.0000,1679.0000,390.0000,162.0000,-3.0000,615.0000,-239.0000,-4018.0000,-0.3953,0.2164,-0.1606,-0.8781,173.1000,-14.6400,-123.1500,-10.7900,-2.9700,4.8600,0.0000,0.0000,-0.0000,1097.0000,1726.0000,1500.0000,2000.0000
558383.1790,2.0000,2000.0000,1676.0000,1980.0000,199.0000,126.0000,27.0000,858.0000,-624.0000,-6542.0000,-0.3986,0.2178,-0.2064,-0.8667,172.8200,-14.7600,-123.0300,-11.1400,-3.4700,5.3400,0.0000,0.0000,-0.0000,1173.0000,1338.0000,1500.0000,2000.0000
558399.7900,2.0000,2000.0000,1666.0000,1988.0000,-7.0000,99.0000,59.0000,500.0000,-878.0000,-6932.0000,-0.3919,0.2251,-0.2254,-0.8631,172.5500,-14.8900,-122.9000,-11.3600,-3.7800,5.9300,0.0000,0.0000,-0.0000,1173.0000,1338.0000,1500.0000,2000.0000
558416.4590,2.0000,2000.0000,1666.0000,1988.0000,-146.0000,64.0000,87.0000,879.0000,-545.0000,-7300.0000,-0.3764,0.2378,-0.2220,-0.8675,172.3000,-15.0100,-122.7900,-11.5200,-3.9900,6.4000,0.0000,0.0000,-0.0000,1173.0000,1338.0000,1500.0000,2000.0000
558433.2610,2.0000,2000.0000,1666.0000,1988.0000,-234.0000,3.0000,107.0000,-17.0000,-463.0000,-7008.0000,-0.3554,0.2498,-0.2024,-0.8777,172.3000,-15.0100,-122.7900,-11.5200,-3.9900,6.4000,0.0000,0.0000,-0.0000,1173.0000,1338.0000,1500.0000,2000.0000
558450.4530,2.0000,2000.0000,1666.0000,1988.0000,-301.0000,-47.0000,115.0000,100.0000,-41.0000,-5174.0000,-0.3308,0.2573,-0.1696,-0.8920,172.0600,-15.1300,-122.6800,-11.6100,-4.1400,6.8700,0.0000,0.0000,-0.0000,1173.0000,1338.0000,1500.0000,2000.0000
558467.0690,2.0000,2000.0000,1666.0000,1988.0000,-343.0000,-76.0000,119.0000,-6.0000,72.0000,-1461.0000,-0.3047,0.2610,-0.1287,-0.9069,171.7700,-15.2800,-122.5900,-11.8800,-4.4600,7.2500,0.0000,0.0000,-0.0000,1173.0000,1338.0000,1500.0000,2000.0000
558484.1260,2.0000,2000.0000,1052.0000,1000.0000,-365.0000,-85.0000,110.0000,-223.0000,209.0000,1971.0000,-0.2770,0.2636,-0.0815,-0.9204,171.4600,-15.4500,-122.5000,-12.3000,-4.9600,7.3800,0.0000,0.0000,-0.0000,1990.0000,1542.0000,1500.0000,2000.0000
558500.8860,2.0000,2000.0000,1051.0000,1000.0000,-388.0000,-89.0000,88.0000,-233.0000,841.0000,4419.0000,-0.2503,0.2654,-0.0312,-0.9306,171.1600,-15.6100,-122.4100,-12.8000,-5.4800,7.4500,0.0000,0.0000,-0.0000,1990.0000,1542.0000,1500.0000,2000.0000
558517.9240,2.0000,2000.0000,1051.0000,1000.0000,-376.0000,-91.0000,51.0000,-80.0000,1167.0000,6135.0000,-0.2262,0.2668,0.0227,-0.9366,170.8700,-15.7800,-122.3000,-13.3700,-5.8800,7.4100,0.0000,0.0000,-0.0000,1990.0000,1542.0000,1500.0000,2000.0000
558534.4310,2.0000,2000.0000,1051.0000,1000.0000,-301.0000,-102.0000,6.0000,-30.0000,967.0000,7478.0000,-0.2097,0.2645,0.0704,-0.9387,170.8700,-15.7800,-122.3000,-13.3700,-5.8800,7.4100,0.0000,0.0000,-0.0000,1990.0000,1542.0000,1500.0000,2000.0000
558551.4860,2.0000,2000.0000,1051.0000,1000.0000,-189.0000,-103.0000,-40.0000,143.0000,601.0000,8838.0000,-0.2018,0.2572,0.1087,-0.9388,170.5800,-15.9400,-122.1900,-13.9600,-6.1700,7.2400,0.0000,0.0000,-0.0000,1990.0000,1542.0000,1500.0000,2000.0000
558568.2440,2.0000,2000.0000,1051.0000,1000.0000,-36.0000,-87.0000,-87.0000,447.0000,280.0000,10503.0000,-0.2054,0.2464,0.1298,-0.9382,170.2400,-16.1400,-122.0500,-14.5500,-6.4500,6.9500,0.0000,0.0000,-0.0000,1990.0000,1542.0000,1500.0000,2000.0000
558585.0900,2.0000,2000.0000,1051.0000,1000.0000,134.0000,-41.0000,-117.0000,437.0000,-23.0000,11399.0000,-0.2210,0.2335,0.1278,-0.9382,169.8700,-16.3500,-121.9100,-15.1400,-6.6900,6.5100,0.0000,0.0000,-0.0000,1990.0000,1542.0000,1500.0000,2000.0000
558601.9890,2.0000,2000.0000,1000.0000,1349.0000,272.0000,26.0000,-128.0000,461.0000,-545.0000,11547.0000,-0.2455,0.2234,0.1033,-0.9376,169.5200,-16.5500,-121.7700,-15.6500,-6.9200,5.9700,0.0000,0.0000,-0.0000,1844.0000,1307.0000,1500.0000,2000.0000
558618.6840,2.0000,2000.0000,1000.0000,1349.0000,441.0000,84.0000,-130.0000,124.0000,-1015.0000,9373.0000,-0.2756,0.2159,0.0564,-0.9350,169.1800,-16.7500,-121.6300,-16.0000,-7.2300,5.3900,0.0000,0.0000,-0.0000,1844.0000,1307.0000,1500.0000,2000.0000
558635.3720,2.0000,2000.0000,1000.0000,1349.0000,550.0000,126.0000,-127.0000,-169.0000,-809.0000,5077.0000,-0.3087,0.2085,-0.0124,-0.9279,169.1800,-16.7500,-121.6300,-16.0000,-7.2300,5.3900,0.0000,0.0000,-0.0000,1844.0000,1307.0000,1500.0000,2000.0000
558652.4370,2.0000,2000.0000,1000.0000,1349.0000,569.0000,128.0000,-126.0000,-343.0000,-389.0000,68.0000,-0.3424,0.1999,-0.0928,-0.9133,168.8600,-16.9400,-121.5000,-16.0400,-7.5900,5.1100,0.0000,0.0000,-0.0000,1844.0000,1307.0000,1500.0000,2000.0000
558669.0820,2.0000,2000.0000,1000.0000,1349.0000,513.0000,96.0000,-122.0000,-90.0000,-340.0000,-3278.0000,-0.3719,0.1887,-0.1660,-0.8936,168.5000,-17.1500,-121.3500,-15.9000,-7.7500,5.3100,0.0000,0.0000,-0.0000,1844.0000,1307.0000,1500.0000,2000.0000
558686.0390,2.0000,2000.0000,1375.0000,1619.0000,463.0000,39.0000,-110.0000,-151.0000,-777.0000,-4499.0000,-0.3976,0.1735,-0.2306,-0.8710,168.1300,-17.3700,-121.1900,-15.7000,-7.7200,5.8800,0.0000,0.0000,-0.0000,1144.0000,1450.0000,1500.0000,2000.0000
558702.8720,2.0000,2000.0000,1807.0000,1905.0000,447.0000,-4.0000,-82.0000,-267.0000,-1574.0000,-3326.0000,-0.4189,0.1524,-0.2866,-0.8480,167.7900,-17.5700,-121.0200,-15.4800,-7.6100,6.4600,0.0000,0.0000,-0.0000,1144.0000,1450.0000,1500.0000,2000.0000
558719.5580,2.0000,2000.0000,1807.0000,1905.0000,445.0000,-43.0000,-56.0000,-215.0000,-2013.0000,-671.0000,-0.4362,0.1255,-0.3374,-0.8247,167.4800,-17.7600,-120.8400,-15.2400,-7.5900,6.9400,0.0000,0.0000,-0.0000,1144.0000,1450.0000,1500.0000,2000.0000
558736.3400,2.0000,2000.0000,1807.0000,1905.0000,424.0000,-65.0000,-28.0000,46.0000,-1794.0000,2196.0000,-0.4501,0.0932,-0.3852,-0.8002,167.4800,-17.7600,-120.8400,-15.2400,-7.5900,6.9400,0.0000,0.0000,-0.0000,1144.0000,1450.0000,1500.0000,2000.0000
558753.3880,2.0000,2000.0000,1807.0000,1905.0000,336.0000,-94.0000,8.0000,499.0000,-1896.0000,4280.0000,-0.4604,0.0586,-0.4246,-0.7774,167.1900,-17.9400,-120.6500,-14.9800,-7.7600,7.2400,0.0000,0.0000,-0.0000,1144.0000,1450.0000,1500.0000,2000.0000
558770.2230,2.0000,2000.0000,1807.0000,1905.0000,211.0000,-113.0000,53.0000,638.0000,-1963.0000,6422.0000,-0.4650,0.0265,-0.4486,-0.7627,166.8500,-18.1500,-120.4500,-14.8600,-8.0900,7.4500,0.0000,0.0000,-0.0000,1144.0000,1450.0000,1500.0000,2000.0000
558787.0360,2.0000,2000.0000,2000.0000,1609.0000,48.0000,-115.0000,98.0000,489.0000,-1841.0000,8471.0000,-0.4641,0.0002,-0.4547,-0.7602,166.5000,-18.3600,-120.2400,-14.6600,-8.5400,7.5800,0.0000,0.0000,-0.0000,1075.0000,1831.0000,1500.0000,2000.0000
558803.9270,2.0000,2000.0000,2000.0000,1595.0000,-103.0000,-86.0000,135.0000,256.0000,-1591.0000,10279.0000,-0.4571,-0.0166,-0.4443,-0.7703,166.1900,-18.5700,-120.0300,-14.3600,-9.0400,7.5700,0.0000,0.0000,-0.0000,1075.0000,1831.0000,1500.0000,2000.0000
558820.7540,2.0000,2000.0000,2000.0000,1595.0000,-232.0000,-47.0000,156.0000,115.0000,-1154.0000,10834.0000,-0.4451,-0.0224,-0.4197,-0.7907,165.9000,-18.7700,-119.8200,-14.0200,-9.5400,7.3800,0.0000,0.0000,-0.0000,1075.0000,1831.0000,1500.0000,2000.0000
558837.5220,2.0000,2000.0000,2000.0000,1595.0000,-318.0000,8.0000,160.0000,152.0000,-463.0000,10671.0000,-0.4286,-0.0163,-0.3850,-0.8172,165.9000,-18.7700,-119.8200,-14.0200,-9.5400,7.3800,0.0000,0.0000,-0.0000,1075.0000,1831.0000,1500.0000,2000.0000
558854.3920,2.0000,2000.0000,2000.0000,1595.0000,-405.0000,73.0000,149.0000,21.0000,198.0000,9394.0000,-0.4076,0.0029,-0.3431,-0.8462,165.6400,-18.9700,-119.6300,-13.7500,-9.9700,7.0400,0.0000,0.0000,-0.0000,1075.0000,1831.0000,1500.0000,2000.0000
558871.1900,2.0000,2000.0000,2000.0000,1595.0000,-466.0000,138.0000,131.0000,-31.0000,704.0000,6986.0000,-0.3840,0.0351,-0.2941,-0.8745,165.3200,-19.2000,-119.4400,-13.7300,-10.2700,6.6100,0.0000,0.0000,-0.0000,1075.0000,1831.0000,1500.0000,2000.0000
558888.2710,2.0000,2000.0000,1072.0000,1000.0000,-490.0000,198.0000,106.0000,-296.0000,1229.0000,3469.0000,-0.3580,0.0793,-0.2407,-0.8987,165.0000,-19.4300,-119.2500,-13.9400,-10.2800,6.2800,0.0000,0.0000,-0.0000,1991.0000,1561.0000,1500.0000,2000.0000
558904.9570,2.0000,2000.0000,1069.0000,1000.0000,-479.0000,258.0000,65.0000,-47.0000,2001.0000,342.0000,-0.3326,0.1312,-0.1893,-0.9145,164.6900,-19.6300,-119.0600,-14.2900,-9.9400,6.2300,0.0000,0.0000,-0.0000,1991.0000,1561.0000,1500.0000,2000.0000
558921.9490,2.0000,2000.0000,1069.0000,1000.0000,-397.0000,286.0000,10.0000,745.0000,2887.0000,-3029.0000,-0.3111,0.1884,-0.1430,-0.9205,164.3900,-19.8200,-118.8700,-14.6500,-9.4000,6.4500,0.0000,0.0000,-0.0000,1991.0000,1561.0000,1500.0000,2000.0000
558939.0330,2.0000,2000.0000,1069.0000,1000.0000,-235.0000,285.0000,-41.0000,930.0000,2360.0000,-6222.0000,-0.2985,0.2426,-0.1116,-0.9163,164.3900,-19.8200,-118.8700,-14.6500,-9.4000,6.4500,0.0000,0.0000,-0.0000,1991.0000,1561.0000,1500.0000,2000.0000
558955.9810,2.0000,2000.0000,1069.0000,1000.0000,-29.0000,291.0000,-80.0000,229.0000,1766.0000,-8542.0000,-0.2972,0.2887,-0.1035,-0.9042,164.1000,-19.9900,-118.6800,-14.8800,-8.7800,6.9300,0.0000,0.0000,-0.0000,1991.0000,1561.0000,1500.0000,2000.0000
558972.8180,2.0000,2000.0000,1069.0000,1000.0000,163.0000,247.0000,-123.0000,167.0000,1847.0000,-11896.0000,-0.3095,0.3233,-0.1202,-0.8862,163.7500,-20.1700,-118.5000,-14.8400,-8.2600,7.3800,0.0000,0.0000,-0.0000,1991.0000,1561.0000,1500.0000,2000.0000
558989.5430,2.0000,2000.0000,1069.0000,1000.0000,312.0000,141.0000,-162.0000,-170.0000,1748.0000,-14863.0000,-0.3357,0.3400,-0.1535,-0.8650,163.4000,-20.3400,-118.3500,-14.5800,-7.6400,7.9200,0.0000,0.0000,-0.0000,1991.0000,1561.0000,1500.0000,2000.0000
559006.4940,2.0000,2000.0000,1640.0000,1886.0000,459.0000,9.0000,-188.0000,-345.0000,1160.0000,-14514.0000,-0.3752,0.3334,-0.1976,-0.8420,163.0900,-20.4800,-118.2200,-14.2100,-6.8600,8.6000,0.0000,0.0000,-0.0000,1237.0000,1376.0000,1500.0000,2000.0000
559023.5520,2.0000,2000.0000,1640.0000,1886.0000,533.0000,-79.0000,-197.0000,-761.0000,848.0000,-10123.0000,-0.4235,0.3061,-0.2470,-0.8161,162.8000,-20.6000,-118.1200,-14.0100,-6.1500,9.1500,0.0000,0.0000,-0.0000,1237.0000,1376.0000,1500.0000,2000.0000
559040.2010,2.0000,2000.0000,1640.0000,1886.0000,544.0000,-134.0000,-190.0000,-92.0000,172.0000,-4120.0000,-0.4723,0.2655,-0.2946,-0.7872,162.8000,-20.6000,-118.1200,-14.0100,-6.1500,9.1500,0.0000,0.0000,-0.0000,1237.0000,1376.0000,1500.0000,2000.0000
559057.2270,2.0000,2000.0000,1640.0000,1886.0000,488.0000,-119.0000,-163.0000,340.0000,-851.0000,1426.0000,-0.5172,0.2211,-0.3387,-0.7543,162.5300,-20.7000,-118.0300,-14.1100,-5.8800,9.5000,0.0000,0.0000,-0.0000,1237.0000,1376.0000,1500.0000,2000.0000
559074.1810,2.0000,2000.0000,1640.0000,1886.0000,380.0000,-83.0000,-106.0000,666.0000,-2522.0000,5151.0000,-0.5496,0.1827,-0.3749,-0.7239,162.1900,-20.8400,-117.9200,-14.2300,-6.2100,9.6000,0.0000,0.0000,-0.0000,1237.0000,1376.0000,1500.0000,2000.0000
559091.0890,2.0000,2000.0000,1530.0000,2000.0000,216.0000,-66.0000,-38.0000,706.0000,-2881.0000,6162.0000,-0.5678,0.1551,-0.3979,-0.7037,161.8600,-20.9800,-117.8000,-14.1200,-6.8600,9.8600,0.0000,0.0000,-0.0000,1077.0000,1059.0000,1500.0000,2000.0000
559107.8900,2.0000,2000.0000,1482.0000,2000.0000,63.0000,-76.0000,20.0000,291.0000,-2366.0000,6846.0000,-0.5746,0.1375,-0.4057,-0.6973,161.5500,-21.1300,-117.6500,-13.8900,-7.5000,10.0700,0.0000,0.0000,-0.0000,1077.0000,1059.0000,1500.0000,2000.0000
559124.4570,2.0000,2000.0000,1482.0000,2000.0000,-55.0000,-84.0000,73.0000,37.0000,-2177.0000,6559.0000,-0.5734,0.1275,-0.3994,-0.7038,161.2700,-21.2900,-117.4800,-13.6800,-8.0200,10.2100,0.0000,0.0000,-0.0000,1077.0000,1059.0000,1500.0000,2000.0000
559141.6080,2.0000,2000.0000,1482.0000,2000.0000,-134.0000,-115.0000,113.0000,62.0000,-2098.0000,6098.0000,-0.5664,0.1203,-0.3819,-0.7203,161.2700,-21.2900,-117.4800,-13.6800,-8.0200,10.2100,0.0000,0.0000,-0.0000,1077.0000,1059.0000,1500.0000,2000.0000
559158.4840,2.0000,2000.0000,1482.0000,2000.0000,-175.0000,-154.0000,138.0000,-28.0000,-1650.0000,6454.0000,-0.5568,0.1120,-0.3559,-0.7421,161.0000,-21.4400,-117.2900,-13.5000,-8.4300,10.3500,0.0000,0.0000,-0.0000,1077.0000,1059.0000,1500.0000,2000.0000
559175.1790,2.0000,2000.0000,1482.0000,2000.0000,-199.0000,-178.0000,154.0000,25.0000,-1346.0000,7828.0000,-0.5458,0.1015,-0.3239,-0.7661,160.7600,-21.5900,-117.0800,-13.3700,-8.7700,10.4100,0.0000,0.0000,-0.0000,1077.0000,1059.0000,1500.0000,2000.0000
559192.0550,2.0000,2000.0000,1000.0000,1463.0000,-220.0000,-193.0000,167.0000,135.0000,-1114.0000,9670.0000,-0.5328,0.0893,-0.2872,-0.7910,160.5400,-21.7300,-116.8700,-13.2700,-9.1200,10.3000,0.0000,0.0000,-0.0000,1974.0000,1065.0000,1500.0000,2000.0000
559208.8220,2.0000,2000.0000,1000.0000,1462.0000,-222.0000,-197.0000,165.0000,477.0000,-1046.0000,11591.0000,-0.5184,0.0769,-0.2475,-0.8149,160.3100,-21.8900,-116.6400,-13.1600,-9.5400,9.9300,0.0000,0.0000,-0.0000,1974.0000,1065.0000,1500.0000,2000.0000
559225.5270,2.0000,2000.0000,1000.0000,1462.0000,-170.0000,-202.0000,150.0000,612.0000,-796.0000,12729.0000,-0.5042,0.0624,-0.2102,-0.8353,160.1000,-22.0500,-116.4300,-13.0700,-9.9700,9.3000,0.0000,0.0000,-0.0000,1974.0000,1065.0000,1500.0000,2000.0000
559242.6480,2.0000,2000.0000,1000.0000,1462.0000,-101.0000,-207.0000,120.0000,824.0000,-346.0000,13769.0000,-0.4922,0.0424,-0.1789,-0.8509,160.1000,-22.0500,-116.4300,-13.0700,-9.9700,9.3000,0.0000,0.0000,-0.0000,1974.0000,1065.0000,1500.0000,2000.0000
559259.3900,2.0000,2000.0000,1000.0000,1462.0000,-31.0000,-195.0000,72.0000,1161.0000,112.0000,15116.0000,-0.4846,0.0196,-0.1570,-0.8603,159.8900,-22.2100,-116.2300,-13.0400,-10.3100,8.4500,0.0000,0.0000,-0.0000,1974.0000,1065.0000,1500.0000,2000.0000
559276.0670,2.0000,2000.0000,1000.0000,1462.0000,32.0000,-178.0000,25.0000,1352.0000,419.0000,16016.0000,-0.4826,-0.0052,-0.1445,-0.8638,159.7000,-22.3700,-116.0500,-13.0300,-10.5600,7.4000,0.0000,0.0000,-0.0000,1974.0000,1065.0000,1500.0000,2000.0000
559293.0590,2.0000,2000.0000,1122.0000,1480.0000,65.0000,-153.0000,-16.0000,1451.0000,154.0000,16257.0000,-0.4857,-0.0302,-0.1391,-0.8625,159.5100,-22.5400,-115.9000,-12.9900,-10.7600,6.1900,0.0000,0.0000,-0.0000,1701.0000,1320.0000,1500.0000,2000.0000
559309.6440,2.0000,2000.0000,1122.0000,1480.0000,90.0000,-127.0000,-55.0000,1335.0000,288.0000,15539.0000,-0.4927,-0.0524,-0.1391,-0.8574,159.3200,-22.7000,-115.7800,-12.8600,-10.9200,4.9700,0.0000,0.0000,-0.0000,1701.0000,1320.0000,1500.0000,2000.0000
559326.5190,2.0000,2000.0000,1122.0000,1480.0000,102.0000,-103.0000,-86.0000,1087.0000,201.0000,14765.0000,-0.5033,-0.0725,-0.1434,-0.8490,159.3200,-22.7000,-115.7800,-12.8600,-10.9200,4.9700,0.0000,0.0000,-0.0000,1701.0000,1320.0000,1500.0000,2000.0000
559343.3910,2.0000,2000.0000,1122.0000,1480.0000,111.0000,-77.0000,-111.0000,750.0000,-149.0000,13674.0000,-0.5163,-0.0894,-0.1511,-0.8382,159.1400,-22.8600,-115.6800,-12.6600,-11.0100,3.8200,0.0000,0.0000,-0.0000,1701.0000,1320.0000,1500.0000,2000.0000
559359.9780,2.0000,2000.0000,1122.0000,1480.0000,118.0000,-60.0000,-127.0000,686.0000,-222.0000,12170.0000,-0.5305,-0.1034,-0.1615,-0.8257,158.9600,-23.0200,-115.6100,-12.3900,-11.0400,2.7800,0.0000,0.0000,-0.0000,1701.0000,1320.0000,1500.0000,2000.0000
559377.0470,2.0000,2000.0000,1122.0000,1480.0000,134.0000,-53.0000,-137.0000,657.0000,-414.0000,10730.0000,-0.5459,-0.1169,-0.1744,-0.8111,158.8000,-23.1800,-115.5600,-12.1000,-11.0200,1.9200,0.0000,0.0000,-0.0000,1701.0000,1320.0000,1500.0000,2000.0000
559393.5690,2.0000,2000.0000,1122.0000,1480.0000,146.0000,-47.0000,-137.0000,590.0000,-700.0000,10177.0000,-0.5604,-0.1303,-0.1891,-0.7958,158.6600,-23.3200,-115.5300,-11.8200,-10.9500,1.2400,0.0000,0.0000,-0.0000,1701.0000,1320.0000,1500.0000,2000.0000
559410.4210,2.0000,2000.0000,1788.0000,1876.0000,164.0000,-51.0000,-135.0000,547.0000,-933.0000,9121.0000,-0.5739,-0.1449,-0.2060,-0.7792,158.5500,-23.4300,-115.5100,-11.5500,-10.8200,0.7200,0.0000,0.0000,-0.0000,1168.0000,1455.0000,1500.0000,2000.0000
559427.4270,2.0000,2000.0000,1788.0000,1876.0000,165.0000,-56.0000,-126.0000,662.0000,-1329.0000,8632.0000,-0.5862,-0.1609,-0.2237,-0.7619,158.5500,-23.4300,-115.5100,-11.5500,-10.8200,0.7200,0.0000,0.0000,-0.0000,1168.0000,1455.0000,1500.0000,2000.0000
559444.4790,2.0000,2000.0000,1788.0000,1876.0000,117.0000,-71.0000,-107.0000,631.0000,-1426.0000,7784.0000,-0.5972,-0.1763,-0.2373,-0.7456,158.4700,-23.5300,-115.5100,-11.2800,-10.6400,0.3200,0.0000,0.0000,-0.0000,1168.0000,1455.0000,1500.0000,2000.0000
559461.3620,2.0000,2000.0000,1788.0000,1876.0000,41.0000,-88.0000,-71.0000,509.0000,-1629.0000,7711.0000,-0.6075,-0.1891,-0.2410,-0.7329,158.3900,-23.6100,-115.5200,-11.0100,-10.4600,0.0200,0.0000,0.0000,-0.0000,1168.0000,1455.0000,1500.0000,2000.0000
559478.1630,2.0000,2000.0000,1788.0000,1876.0000,-67.0000,-80.0000,-29.0000,481.0000,-1821.0000,8696.0000,-0.6160,-0.1949,-0.2330,-0.7268,158.3100,-23.7100,-115.5300,-10.7200,-10.3000,-0.2100,0.0000,0.0000,-0.0000,1168.0000,1455.0000,1500.0000,2000.0000
559495.0550,2.0000,2000.0000,1794.0000,1852.0000,-168.0000,-52.0000,4.0000,575.0000,-1757.0000,9762.0000,-0.6225,-0.1907,-0.2145,-0.7281,158.2300,-23.8000,-115.5600,-10.3400,-10.1700,-0.5500,0.0000,0.0000,-0.0000,1185.0000,1484.0000,1500.0000,2000.0000
559511.9110,2.0000,2000.0000,1800.0000,1830.0000,-248.0000,-12.0000,34.0000,447.0000,-1592.0000,9305.0000,-0.6268,-0.1751,-0.1886,-0.7355,158.1500,-23.9000,-115.5900,-9.9600,-10.0300,-1.0100,0.0000,0.0000,-0.0000,1185.0000,1484.0000,1500.0000,2000.0000
559528.8010,2.0000,2000.0000,1800.0000,1830.0000,-324.0000,17.0000,58.0000,576.0000,-1379.0000,7497.0000,-0.6283,-0.1492,-0.1560,-0.7474,158.1500,-23.9000,-115.5900,-9.9600,-10.0300,-1.0100,0.0000,0.0000,-0.0000,1185.0000,1484.0000,1500.0000,2000.0000
559545.8550,2.0000,2000.0000,1800.0000,1830.0000,-371.0000,38.0000,74.0000,429.0000,-1008.0000,5493.0000,-0.6269,-0.1146,-0.1181,-0.7615,158.0800,-23.9900,-115.6400,-9.7500,-9.8900,-1.4300,0.0000,0.0000,-0.0000,1185.0000,1484.0000,1500.0000,2000.0000
559562.7000,2.0000,2000.0000,1800.0000,1830.0000,-403.0000,54.0000,86.0000,504.0000,-719.0000,3568.0000,-0.6223,-0.0747,-0.0773,-0.7754,158.0200,-24.0700,-115.6900,-9.7500,-9.7100,-1.6900,0.0000,0.0000,-0.0000,1185.0000,1484.0000,1500.0000,2000.0000
559579.6670,2.0000,2000.0000,1800.0000,1830.0000,-423.0000,65.0000,94.0000,270.0000,-362.0000,2103.0000,-0.6145,-0.0308,-0.0341,-0.7875,157.6900,-24.3900,-115.6200,-9.8700,-10.4300,-1.7300,0.0000,0.0000,-0.0000,1185.0000,1484.0000,1500.0000,2000.0000
559596.6210,2.0000,2000.0000,1057.0000,1000.0000,-437.0000,80.0000,92.0000,33.0000,126.0000,1209.0000,-0.6040,0.0170,0.0095,-0.7967,157.3600,-24.7300,-115.5300,-10.1000,-11.1400,-1.6200,0.0000,0.0000,-0.0000,1990.0000,1548.0000,1500.0000,2000.0000
559613.5430,2.0000,2000.0000,1057.0000,1000.0000,-445.0000,93.0000,87.0000,-53.0000,473.0000,377.0000,-0.5912,0.0663,0.0535,-0.8020,157.0300,-25.0700,-115.4300,-10.3700,-11.7600,-1.4100,0.0000,0.0000,-0.0000,1990.0000,1548.0000,1500.0000,2000.0000
559630.2860,2.0000,2000.0000,1057.0000,1000.0000,-421.0000,95.0000,75.0000,134.0000,755.0000,-335.0000,-0.5770,0.1156,0.0956,-0.8029,157.0300,-25.0700,-115.4300,-10.3700,-11.7600,-1.4100,0.0000,0.0000,-0.0000,1990.0000,1548.0000,1500.0000,2000.0000
559647.3750,2.0000,2000.0000,1057.0000,1000.0000,-350.0000,93.0000,45.0000,384.0000,1120.0000,-1028.0000,-0.5633,0.1612,0.1329,-0.7994,156.7200,-25.4000,-115.3300,-10.6200,-12.2800,-1.1000,0.0000,0.0000,-0.0000,1990.0000,1548.0000,1500.0000,2000.0000
559664.0990,2.0000,2000.0000,1057.0000,1000.0000,-216.0000,73.0000,-1.0000,-155.0000,1221.0000,-2058.0000,-0.5553,0.1945,0.1587,-0.7929,156.4200,-25.7200,-115.2200,-10.8400,-12.7300,-0.7200,0.0000,0.0000,-0.0000,1990.0000,1548.0000,1500.0000,2000.0000
559681.1590,2.0000,2000.0000,1057.0000,1000.0000,-35.0000,62.0000,-43.0000,-98.0000,1095.0000,-1871.0000,-0.5560,0.2127,0.1692,-0.7855,156.0800,-26.1600,-115.0900,-10.7300,-13.5900,-0.2500,0.0000,0.0000,-0.0000,1990.0000,1548.0000,1500.0000,2000.0000
559698.2810,2.0000,2000.0000,1000.0000,1334.0000,157.0000,66.0000,-82.0000,-166.0000,399.0000,-1484.0000,-0.5670,0.2120,0.1590,-0.7799,155.7600,-26.5900,-114.9600,-10.5800,-14.3100,0.1800,0.0000,0.0000,-0.0000,1853.0000,1313.0000,1500.0000,2000.0000
559714.9180,2.0000,2000.0000,1000.0000,1334.0000,304.0000,87.0000,-116.0000,-323.0000,522.0000,-1617.0000,-0.5870,0.1985,0.1288,-0.7742,155.4700,-27.0100,-114.8200,-10.4100,-14.9200,0.5500,0.0000,0.0000,-0.0000,1853.0000,1313.0000,1500.0000,2000.0000
559731.6430,2.0000,2000.0000,1000.0000,1334.0000,434.0000,83.0000,-140.0000,-497.0000,532.0000,-3270.0000,-0.6130,0.1732,0.0821,-0.7665,155.4700,-27.0100,-114.8200,-10.4100,-14.9200,0.5500,0.0000,0.0000,-0.0000,1853.0000,1313.0000,1500.0000,2000.0000
559748.3390,2.0000,2000.0000,1000.0000,1334.0000,444.0000,61.0000,-151.0000,-398.0000,445.0000,-5188.0000,-0.6399,0.1396,0.0293,-0.7551,155.2000,-27.4100,-114.6800,-10.2300,-15.4000,1.0400,0.0000,0.0000,-0.0000,1853.0000,1313.0000,1500.0000,2000.0000
559765.4140,2.0000,2000.0000,1000.0000,1334.0000,433.0000,16.0000,-150.0000,-436.0000,53.0000,-5119.0000,-0.6646,0.1012,-0.0203,-0.7400,154.9500,-27.7900,-114.5300,-10.0200,-15.7500,1.6700,0.0000,0.0000,-0.0000,1853.0000,1313.0000,1500.0000,2000.0000
559782.2020,2.0000,2000.0000,1000.0000,1334.0000,426.0000,-26.0000,-137.0000,-15.0000,-916.0000,-2713.0000,-0.6851,0.0594,-0.0634,-0.7232,154.6900,-28.2800,-114.3600,-9.5300,-16.2300,2.2800,0.0000,0.0000,-0.0000,1853.0000,1313.0000,1500.0000,2000.0000
559798.9910,2.0000,2000.0000,2000.0000,1663.0000,440.0000,-59.0000,-111.0000,79.0000,-1468.0000,363.0000,-0.7008,0.0125,-0.1036,-0.7057,154.4500,-28.7500,-114.1900,-9.0500,-16.7000,2.7600,0.0000,0.0000,-0.0000,1079.0000,1759.0000,1500.0000,2000.0000
559815.8020,2.0000,2000.0000,2000.0000,1663.0000,454.0000,-85.0000,-81.0000,44.0000,-2022.0000,3213.0000,-0.7106,-0.0393,-0.1418,-0.6881,154.2400,-29.2000,-114.0200,-8.5300,-17.1400,2.9500,0.0000,0.0000,-0.0000,1079.0000,1759.0000,1500.0000,2000.0000
559832.4230,2.0000,2000.0000,2000.0000,1663.0000,444.0000,-87.0000,-50.0000,180.0000,-2101.0000,6139.0000,-0.7141,-0.0931,-0.1780,-0.6706,154.2400,-29.2000,-114.0200,-8.5300,-17.1400,2.9500,0.0000,0.0000,-0.0000,1079.0000,1759.0000,1500.0000,2000.0000
559849.5130,2.0000,2000.0000,2000.0000,1663.0000,365.0000,-98.0000,-5.0000,595.0000,-2242.0000,8176.0000,-0.7120,-0.1449,-0.2092,-0.6545,154.0600,-29.6300,-113.8400,-7.9200,-17.5200,2.9200,0.0000,0.0000,-0.0000,1079.0000,1759.0000,1500.0000,2000.0000
559866.1390,2.0000,2000.0000,2000.0000,1663.0000,248.0000,-97.0000,45.0000,851.0000,-2141.0000,9487.0000,-0.7058,-0.1864,-0.2271,-0.6446,153.9000,-30.0300,-113.6800,-7.2100,-17.8500,2.7200,0.0000,0.0000,-0.0000,1079.0000,1759.0000,1500.0000,2000.0000
559882.7530,2.0000,2000.0000,2000.0000,1663.0000,127.0000,-80.0000,88.0000,1007.0000,-1921.0000,11075.0000,-0.6974,-0.2164,-0.2332,-0.6422,153.7300,-30.5400,-113.5100,-6.3100,-18.1700,2.4500,0.0000,0.0000,-0.0000,1079.0000,1759.0000,1500.0000,2000.0000
559899.6180,2.0000,2000.0000,2000.0000,1716.0000,-12.0000,-39.0000,122.0000,899.0000,-1779.0000,12106.0000,-0.6877,-0.2316,-0.2289,-0.6489,153.6000,-31.0100,-113.3600,-5.4100,-18.4000,2.0500,0.0000,0.0000,-0.0000,1124.0000,1662.0000,1500.0000,2000.0000
559916.2290,2.0000,2000.0000,2000.0000,1716.0000,-145.0000,21.0000,142.0000,718.0000,-1307.0000,11844.0000,-0.6783,-0.2289,-0.2160,-0.6640,153.4900,-31.4400,-113.2500,-4.5800,-18.5300,1.5300,0.0000,0.0000,-0.0000,1124.0000,1662.0000,1500.0000,2000.0000
559933.1780,2.0000,2000.0000,2000.0000,1716.0000,-269.0000,83.0000,151.0000,319.0000,-710.0000,9751.0000,-0.6692,-0.2074,-0.1952,-0.6863,153.4900,-31.4400,-113.2500,-4.5800,-18.5300,1.5300,0.0000,0.0000,-0.0000,1124.0000,1662.0000,1500.0000,2000.0000
559949.7720,2.0000,2000.0000,2000.0000,1716.0000,-376.0000,132.0000,153.0000,54.0000,-71.0000,6401.0000,-0.6598,-0.1692,-0.1690,-0.7124,153.4000,-31.8500,-113.1500,-3.9600,-18.6100,1.0000,0.0000,0.0000,-0.0000,1124.0000,1662.0000,1500.0000,2000.0000
559966.4050,2.0000,2000.0000,2000.0000,1716.0000,-450.0000,176.0000,141.0000,-344.0000,498.0000,2530.0000,-0.6499,-0.1163,-0.1365,-0.7386,153.3300,-32.2500,-113.0600,-3.7100,-18.6600,0.6600,0.0000,0.0000,-0.0000,1124.0000,1662.0000,1500.0000,2000.0000
559982.9330,2.0000,2000.0000,1100.0000,1002.0000,-487.0000,213.0000,124.0000,-477.0000,1069.0000,-896.0000,-0.6385,-0.0540,-0.1015,-0.7610,153.2400,-32.7400,-112.9400,-3.6800,-18.7400,0.6800,0.0000,0.0000,-0.0000,1990.0000,1546.0000,1500.0000,2000.0000
559999.8290,2.0000,2000.0000,1055.0000,1000.0000,-486.0000,221.0000,93.0000,-152.0000,1672.0000,-3280.0000,-0.6253,0.0149,-0.0662,-0.7774,153.1500,-33.2100,-112.8200,-3.8200,-18.7500,1.0500,0.0000,0.0000,-0.0000,1990.0000,1546.0000,1500.0000,2000.0000
560016.4650,2.0000,2000.0000,1055.0000,1000.0000,-465.0000,224.0000,47.0000,237.0000,2438.0000,-4645.0000,-0.6130,0.0826,-0.0317,-0.7851,153.0700,-33.6400,-112.6900,-3.9900,-18.7100,1.5000,0.0000,0.0000,-0.0000,1990.0000,1546.0000,1500.0000,2000.0000
560033.3360,2.0000,2000.0000,1055.0000,1000.0000,-376.0000,214.0000,-7.0000,176.0000,2804.0000,-4603.0000,-0.6037,0.1460,-0.0020,-0.7837,153.0700,-33.6400,-112.6900,-3.9900,-18.7100,1.5000,0.0000,0.0000,-0.0000,1990.0000,1546.0000,1500.0000,2000.0000
560050.6500,2.0000,2000.0000,1055.0000,1000.0000,-239.0000,219.0000,-52.0000,656.0000,2172.0000,-4928.0000,-0.5999,0.2000,0.0158,-0.7745,152.9900,-34.0500,-112.5600,-4.1100,-18.6400,1.9700,0.0000,0.0000,-0.0000,1990.0000,1546.0000,1500.0000,2000.0000
560067.2840,2.0000,2000.0000,1055.0000,1000.0000,-17.0000,227.0000,-95.0000,562.0000,1794.0000,-5925.0000,-0.6052,0.2353,0.0128,-0.7604,152.9000,-34.5500,-112.4200,-3.9600,-18.7200,2.4700,0.0000,0.0000,-0.0000,1990.0000,1546.0000,1500.0000,2000.0000
560084.1230,2.0000,2000.0000,1055.0000,1000.0000,191.0000,209.0000,-137.0000,252.0000,1606.0000,-8309.0000,-0.6216,0.2513,-0.0129,-0.7418,152.8200,-35.0200,-112.2800,-3.7100,-18.7300,2.9900,0.0000,0.0000,-0.0000,1990.0000,1546.0000,1500.0000,2000.0000
560100.6520,2.0000,2000.0000,2000.0000,1584.0000,358.0000,147.0000,-174.0000,-435.0000,1596.0000,-11458.0000,-0.6474,0.2457,-0.0527,-0.7195,152.7600,-35.4500,-112.1600,-3.3800,-18.5300,3.7100,0.0000,0.0000,-0.0000,1101.0000,1809.0000,1500.0000,2000.0000
560117.3770,2.0000,2000.0000,2000.0000,1591.0000,473.0000,79.0000,-197.0000,-591.0000,1296.0000,-12244.0000,-0.6796,0.2184,-0.1007,-0.6930,152.7600,-35.4500,-112.1600,-3.3800,-18.5300,3.7100,0.0000,0.0000,-0.0000,1101.0000,1809.0000,1500.0000,2000.0000
560134.0900,2.0000,2000.0000,2000.0000,1591.0000,516.0000,-8.0000,-201.0000,-286.0000,705.0000,-9476.0000,-0.7129,0.1745,-0.1467,-0.6631,152.7000,-35.8500,-112.0600,-3.1200,-18.1300,4.4600,0.0000,0.0000,-0.0000,1101.0000,1809.0000,1500.0000,2000.0000
560151.0970,2.0000,2000.0000,2000.0000,1591.0000,483.0000,-55.0000,-190.0000,261.0000,81.0000,-4706.0000,-0.7435,0.1213,-0.1869,-0.6305,152.6600,-36.2200,-111.9800,-3.0100,-17.8200,5.1800,0.0000,0.0000,-0.0000,1101.0000,1809.0000,1500.0000,2000.0000
560167.6450,2.0000,2000.0000,2000.0000,1591.0000,396.0000,-69.0000,-161.0000,937.0000,-928.0000,-422.0000,-0.7672,0.0726,-0.2173,-0.5991,152.6100,-36.5700,-111.9000,-2.9500,-17.8000,5.6000,0.0000,0.0000,-0.0000,1101.0000,1809.0000,1500.0000,2000.0000
560184.5410,2.0000,2000.0000,2000.0000,1591.0000,258.0000,-55.0000,-103.0000,1132.0000,-2497.0000,2533.0000,-0.7832,0.0341,-0.2378,-0.5735,152.5700,-37.0100,-111.8100,-2.5700,-18.0600,5.8600,0.0000,0.0000,-0.0000,1101.0000,1809.0000,1500.0000,2000.0000
560201.5080,2.0000,2000.0000,1938.0000,1762.0000,95.0000,-26.0000,-40.0000,561.0000,-3162.0000,4593.0000,-0.7911,0.0126,-0.2469,-0.5595,152.5400,-37.4300,-111.7100,-2.0100,-18.3100,5.9900,0.0000,0.0000,-0.0000,1150.0000,1590.0000,1500.0000,2000.0000
560218.2120,2.0000,2000.0000,1938.0000,1762.0000,-55.0000,21.0000,8.0000,-126.0000,-2289.0000,5775.0000,-0.7921,0.0116,-0.2480,-0.5577,152.5400,-37.4300,-111.7100,-2.0100,-18.3100,5.9900,0.0000,0.0000,-0.0000,1150.0000,1590.0000,1500.0000,2000.0000
560235.0230,2.0000,2000.0000,1938.0000,1762.0000,-173.0000,59.0000,45.0000,-492.0000,-1809.0000,4374.0000,-0.7879,0.0276,-0.2432,-0.5651,152.5300,-37.8300,-111.5900,-1.4400,-18.4800,6.0800,0.0000,0.0000,-0.0000,1150.0000,1590.0000,1500.0000,2000.0000
560252.2460,2.0000,2000.0000,1938.0000,1762.0000,-266.0000,84.0000,76.0000,-328.0000,-1435.0000,1679.0000,-0.7785,0.0579,-0.2329,-0.5799,152.5200,-38.2300,-111.4600,-1.0000,-18.5900,6.0900,0.0000,0.0000,-0.0000,1150.0000,1590.0000,1500.0000,2000.0000
560268.6980,2.0000,2000.0000,1938.0000,1762.0000,-360.0000,109.0000,97.0000,53.0000,-833.0000,-1527.0000,-0.7644,0.0984,-0.2181,-0.5987,152.5300,-38.6900,-111.3000,-0.5600,-18.6100,6.3100,0.0000,0.0000,-0.0000,1150.0000,1590.0000,1500.0000,2000.0000
560285.3640,2.0000,2000.0000,1938.0000,1762.0000,-421.0000,105.0000,111.0000,6.0000,-822.0000,-4147.0000,-0.7450,0.1475,-0.1967,-0.6201,152.5500,-39.1300,-111.1300,-0.2900,-18.5100,6.7600,0.0000,0.0000,-0.0000,1150.0000,1590.0000,1500.0000,2000.0000
560302.2290,2.0000,2000.0000,1000.0000,1129.0000,-452.0000,93.0000,119.0000,-219.0000,-600.0000,-5747.0000,-0.7203,0.2012,-0.1694,-0.6419,152.5700,-39.5500,-110.9500,-0.0600,-18.2600,7.3300,0.0000,0.0000,-0.0000,1986.0000,1385.0000,1500.0000,2000.0000
560318.9070,2.0000,2000.0000,1000.0000,1129.0000,-463.0000,55.0000,126.0000,20.0000,-353.0000,-6575.0000,-0.6919,0.2526,-0.1377,-0.6622,152.5700,-39.5500,-110.9500,-0.0600,-18.2600,7.3300,0.0000,0.0000,-0.0000,1986.0000,1385.0000,1500.0000,2000.0000
560335.9220,2.0000,2000.0000,1000.0000,1129.0000,-447.0000,30.0000,123.0000,99.0000,-309.0000,-5592.0000,-0.6600,0.3006,-0.1010,-0.6810,152.5900,-39.9200,-110.7700,0.1700,-17.9400,7.8800,0.0000,0.0000,-0.0000,1986.0000,1385.0000,1500.0000,2000.0000
560352.7310,2.0000,2000.0000,1000.0000,1129.0000,-374.0000,18.0000,110.0000,-278.0000,-18.0000,-3478.0000,-0.6286,0.3409,-0.0671,-0.6958,152.6200,-40.2900,-110.6100,0.4400,-17.6600,8.2400,0.0000,0.0000,-0.0000,1986.0000,1385.0000,1500.0000,2000.0000
560369.6650,2.0000,2000.0000,1000.0000,1129.0000,-249.0000,37.0000,91.0000,-180.0000,228.0000,-1692.0000,-0.6017,0.3709,-0.0420,-0.7061,152.6500,-40.7200,-110.4500,0.6700,-17.5000,8.4500,0.0000,0.0000,-0.0000,1986.0000,1385.0000,1500.0000,2000.0000
560386.3730,2.0000,2000.0000,1000.0000,1410.0000,-67.0000,55.0000,55.0000,-105.0000,773.0000,-1571.0000,-0.5852,0.3892,-0.0339,-0.7106,152.6900,-41.1200,-110.2900,0.7900,-17.4200,8.6500,0.0000,0.0000,-0.0000,1968.0000,1065.0000,1500.0000,2000.0000
560403.1140,2.0000,2000.0000,1000.0000,1468.0000,125.0000,59.0000,-6.0000,-215.0000,1657.0000,-2634.0000,-0.5849,0.3918,-0.0444,-0.7088,152.7300,-41.5000,-110.1300,0.8400,-17.2800,9.0500,0.0000,0.0000,-0.0000,1968.0000,1065.0000,1500.0000,2000.0000
560419.9560,2.0000,2000.0000,1000.0000,1468.0000,277.0000,67.0000,-48.0000,127.0000,1237.0000,-3655.0000,-0.5993,0.3808,-0.0699,-0.7007,152.7300,-41.5000,-110.1300,0.8400,-17.2800,9.0500,0.0000,0.0000,-0.0000,1968.0000,1065.0000,1500.0000,2000.0000
560436.7060,2.0000,2000.0000,1000.0000,1468.0000,366.0000,48.0000,-84.0000,-232.0000,1418.0000,-5230.0000,-0.6232,0.3585,-0.1052,-0.6870,152.7600,-41.8400,-109.9500,0.9000,-17.0800,9.6100,0.0000,0.0000,-0.0000,1968.0000,1065.0000,1500.0000,2000.0000
560453.8460,2.0000,2000.0000,1000.0000,1468.0000,384.0000,0.0000,-119.0000,-189.0000,1521.0000,-6608.0000,-0.6527,0.3265,-0.1413,-0.6688,152.8000,-42.1800,-109.7500,0.9900,-16.7900,10.2500,0.0000,0.0000,-0.0000,1968.0000,1065.0000,1500.0000,2000.0000
560470.7250,2.0000,2000.0000,1000.0000,1468.0000,348.0000,-55.0000,-139.0000,-220.0000,1066.0000,-5399.0000,-0.6831,0.2902,-0.1676,-0.6489,152.8400,-42.5800,-109.5200,1.0900,-16.3600,10.9900,0.0000,0.0000,-0.0000,1968.0000,1065.0000,1500.0000,2000.0000
560487.4230,2.0000,1995.0000,1478.0000,2000.0000,320.0000,-98.0000,-143.0000,-52.0000,-25.0000,-2703.0000,-0.7115,0.2528,-0.1849,-0.6290,152.8800,-42.9400,-109.2700,1.1400,-16.0500,11.6200,0.0000,0.0000,-0.0000,1064.0000,1051.0000,1500.0000,1996.0000
560504.1200,2.0000,1995.0000,1487.0000,2000.0000,312.0000,-137.0000,-139.0000,-217.0000,-701.0000,882.0000,-0.7383,0.2126,-0.1957,-0.6094,152.9200,-43.2800,-109.0100,1.2300,-15.9500,12.1000,0.0000,0.0000,-0.0000,1064.0000,1051.0000,1500.0000,1996.0000
560520.9040,2.0000,1995.0000,1487.0000,2000.0000,281.0000,-177.0000,-119.0000,-31.0000,-1313.0000,4215.0000,-0.7628,0.1698,-0.2011,-0.5906,152.9200,-43.2800,-109.0100,1.2300,-15.9500,12.1000,0.0000,0.0000,-0.0000,1064.0000,1051.0000,1500.0000,1996.0000
560537.8940,2.0000,1995.0000,1487.0000,2000.0000,207.0000,-225.0000,-80.0000,169.0000,-2112.0000,7453.0000,-0.7832,0.1268,-0.1964,-0.5762,152.9600,-43.5900,-108.7300,1.3800,-16.0400,12.2700,0.0000,0.0000,-0.0000,1064.0000,1051.0000,1500.0000,1996.0000
560554.5960,2.0000,1995.0000,1487.0000,2000.0000,114.0000,-236.0000,-35.0000,658.0000,-2392.0000,11188.0000,-0.7970,0.0907,-0.1819,-0.5688,153.0000,-43.9200,-108.4200,1.6800,-16.2300,12.2100,0.0000,0.0000,-0.0000,1064.0000,1051.0000,1500.0000,1996.0000
560571.1690,2.0000,1995.0000,1487.0000,2000.0000,29.0000,-237.0000,8.0000,1035.0000,-2454.0000,14653.0000,-0.8048,0.0634,-0.1597,-0.5682,153.0600,-44.3000,-108.0900,2.1500,-16.4600,11.8000,0.0000,0.0000,-0.0000,1064.0000,1051.0000,1500.0000,1996.0000
560587.8070,2.0000,1995.0000,1487.0000,2000.0000,-42.0000,-212.0000,46.0000,1295.0000,-2543.0000,16991.0000,-0.8072,0.0454,-0.1327,-0.5733,153.1200,-44.6700,-107.7600,2.6400,-16.7000,11.0100,0.0000,0.0000,-0.0000,1064.0000,1051.0000,1500.0000,1996.0000
560604.6090,2.0000,2000.0000,1000.0000,1381.0000,-87.0000,-185.0000,75.0000,1553.0000,-2232.0000,17858.0000,-0.8053,0.0352,-0.1037,-0.5827,153.1900,-45.0200,-107.4300,3.0600,-16.8700,9.9200,0.0000,0.0000,-0.0000,1940.0000,1180.0000,1500.0000,2000.0000
560621.3800,2.0000,2000.0000,1000.0000,1381.0000,-118.0000,-153.0000,96.0000,1525.0000,-1958.0000,17743.0000,-0.7998,0.0319,-0.0755,-0.5947,153.1900,-45.0200,-107.4300,3.0600,-16.8700,9.9200,0.0000,0.0000,-0.0000,1940.0000,1180.0000,1500.0000,2000.0000
560638.0330,2.0000,2000.0000,1000.0000,1381.0000,-114.0000,-135.0000,107.0000,1427.0000,-1704.0000,16473.0000,-0.7918,0.0325,-0.0488,-0.6079,153.2600,-45.3400,-107.1300,3.3100,-16.9600,8.7300,0.0000,0.0000,-0.0000,1940.0000,1180.0000,1500.0000,2000.0000
560654.6820,2.0000,2000.0000,1000.0000,1381.0000,-58.0000,-130.0000,102.0000,1286.0000,-1437.0000,14788.0000,-0.7829,0.0301,-0.0265,-0.6209,153.3400,-45.6700,-106.8600,3.4400,-16.9900,7.5500,0.0000,0.0000,-0.0000,1940.0000,1180.0000,1500.0000,2000.0000
560671.3450,2.0000,2000.0000,1000.0000,1381.0000,-1.0000,-126.0000,85.0000,1208.0000,-1016.0000,14090.0000,-0.7747,0.0214,-0.0094,-0.6319,153.4200,-46.0600,-106.6000,3.5000,-17.0200,6.4700,0.0000,0.0000,-0.0000,1940.0000,1180.0000,1500.0000,2000.0000
560688.1430,2.0000,2000.0000,1000.0000,1608.0000,65.0000,-106.0000,67.0000,1118.0000,-704.0000,14265.0000,-0.7680,0.0072,0.0006,-0.6404,153.4900,-46.4200,-106.3900,3.5000,-16.9900,5.4200,0.0000,0.0000,-0.0000,1857.0000,1035.0000,1500.0000,2000.0000
560704.8690,2.0000,2000.0000,1000.0000,1609.0000,119.0000,-82.0000,43.0000,894.0000,-517.0000,13506.0000,-0.7631,-0.0123,0.0021,-0.6461,153.4900,-46.4200,-106.3900,3.5000,-16.9900,5.4200,0.0000,0.0000,-0.0000,1857.0000,1035.0000,1500.0000,2000.0000
560721.7490,2.0000,2000.0000,1000.0000,1609.0000,131.0000,-71.0000,16.0000,620.0000,109.0000,11360.0000,-0.7602,-0.0337,-0.0022,-0.6488,153.5700,-46.7600,-106.2100,3.4800,-16.9000,4.3500,0.0000,0.0000,-0.0000,1857.0000,1035.0000,1500.0000,2000.0000
560738.2670,2.0000,2000.0000,1000.0000,1609.0000,119.0000,-102.0000,-12.0000,371.0000,495.0000,9113.0000,-0.7597,-0.0551,-0.0042,-0.6479,153.6300,-47.0800,-106.0300,3.4300,-16.7000,3.4800,0.0000,0.0000,-0.0000,1857.0000,1035.0000,1500.0000,2000.0000
560755.3740,2.0000,2000.0000,1000.0000,1609.0000,100.0000,-124.0000,-37.0000,412.0000,215.0000,9113.0000,-0.7614,-0.0782,-0.0019,-0.6436,153.7000,-47.4000,-105.8400,3.3000,-16.5000,2.9000,0.0000,0.0000,-0.0000,1857.0000,1035.0000,1500.0000,2000.0000
560772.0320,2.0000,2000.0000,1000.0000,1609.0000,91.0000,-144.0000,-57.0000,363.0000,93.0000,9413.0000,-0.7647,-0.1012,0.0037,-0.6363,153.7700,-47.7800,-105.6400,3.1600,-16.3900,2.3800,0.0000,0.0000,-0.0000,1857.0000,1035.0000,1500.0000,2000.0000
560788.6720,2.0000,2000.0000,1302.0000,2000.0000,85.0000,-155.0000,-73.0000,517.0000,-148.0000,10241.0000,-0.7694,-0.1246,0.0115,-0.6264,153.8300,-48.1200,-105.4600,3.0800,-16.2100,1.8200,0.0000,0.0000,-0.0000,1285.0000,1089.0000,1500.0000,2000.0000
560805.4090,2.0000,2000.0000,1303.0000,2000.0000,78.0000,-163.0000,-85.0000,732.0000,-314.0000,11483.0000,-0.7747,-0.1486,0.0204,-0.6143,153.8300,-48.1200,-105.4600,3.0800,-16.2100,1.8200,0.0000,0.0000,-0.0000,1285.0000,1089.0000,1500.0000,2000.0000
560822.4380,2.0000,2000.0000,1303.0000,2000.0000,39.0000,-165.0000,-85.0000,960.0000,-543.0000,12467.0000,-0.7806,-0.1707,0.0318,-0.6004,153.8800,-48.4400,-105.3000,3.0900,-15.9800,1.1400,0.0000,0.0000,-0.0000,1285.0000,1089.0000,1500.0000,2000.0000
560839.4470,2.0000,2000.0000,1303.0000,2000.0000,-16.0000,-164.0000,-75.0000,1069.0000,-1005.0000,12869.0000,-0.7867,-0.1869,0.0478,-0.5865,153.9400,-48.7400,-105.1700,3.1500,-15.6700,0.3600,0.0000,0.0000,-0.0000,1285.0000,1089.0000,1500.0000,2000.0000
560856.2810,2.0000,2000.0000,1303.0000,2000.0000,-47.0000,-161.0000,-62.0000,1080.0000,-1330.0000,13571.0000,-0.7922,-0.1971,0.0676,-0.5736,154.0000,-49.0400,-105.0600,3.2900,-15.4300,-0.4300,0.0000,0.0000,-0.0000,1285.0000,1089.0000,1500.0000,2000.0000
560873.0970,2.0000,2000.0000,1303.0000,2000.0000,-55.0000,-155.0000,-47.0000,1169.0000,-1491.0000,13746.0000,-0.7965,-0.2049,0.0889,-0.5619,154.0600,-49.3900,-104.9700,3.5000,-15.2800,-1.2900,0.0000,0.0000,-0.0000,1285.0000,1089.0000,1500.0000,2000.0000
560890.1510,2.0000,2000.0000,1051.0000,1000.0000,-57.0000,-152.0000,-31.0000,1249.0000,-1702.0000,13434.0000,-0.7993,-0.2115,0.1107,-0.5516,154.1300,-49.7100,-104.9100,3.6800,-15.0400,-2.1600,0.0000,0.0000,-0.0000,1991.0000,1543.0000,1500.0000,2000.0000
560906.8870,2.0000,2000.0000,1051.0000,1000.0000,-52.0000,-154.0000,-18.0000,1240.0000,-1696.0000,13145.0000,-0.8002,-0.2176,0.1324,-0.5429,154.1300,-49.7100,-104.9100,3.6800,-15.0400,-2.1600,0.0000,0.0000,-0.0000,1991.0000,1543.0000,1500.0000,2000.0000
560923.9520,2.0000,2000.0000,1051.0000,1000.0000,-27.0000,-146.0000,-10.0000,1180.0000,-1450.0000,13306.0000,-0.7994,-0.2252,0.1532,-0.5355,154.2000,-50.0100,-104.8700,3.8100,-14.7500,-2.9900,0.0000,0.0000,-0.0000,1991.0000,1543.0000,1500.0000,2000.0000
560940.6650,2.0000,2000.0000,1051.0000,1000.0000,12.0000,-134.0000,-11.0000,1235.0000,-1401.0000,13480.0000,-0.7971,-0.2355,0.1699,-0.5295,154.2700,-50.3000,-104.8700,3.8800,-14.3900,-3.8100,0.0000,0.0000,-0.0000,1991.0000,1543.0000,1500.0000,2000.0000
560957.6770,2.0000,2000.0000,1051.0000,1000.0000,62.0000,-109.0000,-12.0000,1330.0000,-1451.0000,14006.0000,-0.7934,-0.2498,0.1814,-0.5247,154.3500,-50.5900,-104.8800,3.9900,-14.0500,-4.6400,0.0000,0.0000,-0.0000,1991.0000,1543.0000,1500.0000,2000.0000
560974.6740,2.0000,2000.0000,1051.0000,1000.0000,137.0000,-60.0000,-15.0000,1239.0000,-1566.0000,13949.0000,-0.7883,-0.2685,0.1835,-0.5223,154.4400,-50.9000,-104.9100,4.2100,-13.7500,-5.4900,0.0000,0.0000,-0.0000,1991.0000,1543.0000,1500.0000,2000.0000
560991.5230,2.0000,2000.0000,2000.0000,1590.0000,239.0000,22.0000,-16.0000,892.0000,-1507.0000,13272.0000,-0.7813,-0.2920,0.1710,-0.5244,154.5300,-51.2100,-104.9600,4.4500,-13.4300,-6.2900,0.0000,0.0000,-0.0000,1119.0000,1790.0000,1500.0000,2000.0000
561008.3600,2.0000,2000.0000,2000.0000,1592.0000,351.0000,91.0000,-6.0000,556.0000,-1259.0000,10899.0000,-0.7703,-0.3215,0.1412,-0.5323,154.5300,-51.2100,-104.9600,4.4500,-13.4300,-6.2900,0.0000,0.0000,-0.0000,1119.0000,1790.0000,1500.0000,2000.0000
561024.9530,2.0000,2000.0000,2000.0000,1592.0000,457.0000,158.0000,2.0000,255.0000,-957.0000,7106.0000,-0.7527,-0.3566,0.0951,-0.5451,154.6300,-51.4900,-105.0200,4.7300,-13.2300,-6.8900,0.0000,0.0000,-0.0000,1119.0000,1790.0000,1500.0000,2000.0000
561041.6060,2.0000,2000.0000,2000.0000,1592.0000,486.0000,203.0000,2.0000,225.0000,-89.0000,2172.0000,-0.7286,-0.3931,0.0372,-0.5598,154.7200,-51.7600,-105.0600,5.0100,-13.4100,-7.1600,0.0000,0.0000,-0.0000,1119.0000,1790.0000,1500.0000,2000.0000
561058.6380,2.0000,2000.0000,2000.0000,1592.0000,416.0000,220.0000,-2.0000,225.0000,734.0000,-2779.0000,-0.7011,-0.4243,-0.0236,-0.5726,154.8400,-52.0700,-105.0700,5.2900,-14.1300,-7.0400,0.0000,0.0000,-0.0000,1119.0000,1790.0000,1500.0000,2000.0000
561075.5040,2.0000,2000.0000,2000.0000,1592.0000,266.0000,191.0000,2.0000,482.0000,779.0000,-6550.0000,-0.6779,-0.4414,-0.0741,-0.5832,154.9900,-52.4500,-105.0900,5.4900,-15.1500,-6.6400,0.0000,0.0000,-0.0000,1119.0000,1790.0000,1500.0000,2000.0000
561092.3820,2.0000,1996.0000,2000.0000,1568.0000,91.0000,162.0000,17.0000,917.0000,597.0000,-8326.0000,-0.6636,-0.4438,-0.1058,-0.5929,155.1300,-52.8300,-105.1000,5.4100,-16.2000,-6.2800,0.0000,0.0000,-0.0000,1180.0000,1753.0000,1500.0000,1997.0000
561109.3750,2.0000,1996.0000,2000.0000,1568.0000,-67.0000,126.0000,33.0000,1094.0000,-8.0000,-8411.0000,-0.6592,-0.4323,-0.1181,-0.6038,155.1300,-52.8300,-105.1000,5.4100,-16.2000,-6.2800,0.0000,0.0000,-0.0000,1180.0000,1753.0000,1500.0000,1997.0000
561126.2950,2.0000,1996.0000,2000.0000,1568.0000,-181.0000,103.0000,41.0000,595.0000,103.0000,-7536.0000,-0.6623,-0.4101,-0.1151,-0.6164,155.2600,-53.2000,-105.1100,5.2600,-17.1500,-5.9200,0.0000,0.0000,-0.0000,1180.0000,1753.0000,1500.0000,1997.0000
561143.2920,2.0000,1996.0000,2000.0000,1568.0000,-256.0000,86.0000,37.0000,304.0000,462.0000,-6494.0000,-0.6707,-0.3806,-0.1008,-0.6286,155.3800,-53.5600,-105.1400,5.1800,-17.8800,-5.6500,0.0000,0.0000,-0.0000,1180.0000,1753.0000,1500.0000,1997.0000
561160.3220,2.0000,1996.0000,2000.0000,1568.0000,-317.0000,65.0000,29.0000,177.0000,641.0000,-5502.0000,-0.6827,-0.3444,-0.0792,-0.6396,155.5200,-53.9700,-105.1900,5.2200,-18.3600,-5.3600,0.0000,0.0000,-0.0000,1180.0000,1753.0000,1500.0000,1997.0000
561177.0180,2.0000,1996.0000,2000.0000,1568.0000,-350.0000,78.0000,15.0000,214.0000,1021.0000,-4021.0000,-0.6964,-0.3042,-0.0538,-0.6478,155.6800,-54.4100,-105.2600,5.3900,-18.6500,-5.0700,0.0000,0.0000,-0.0000,1180.0000,1753.0000,1500.0000,1997.0000
561193.7210,2.0000,2000.0000,1000.0000,1348.0000,-372.0000,87.0000,-4.0000,358.0000,1040.0000,-2991.0000,-0.7106,-0.2596,-0.0275,-0.6534,155.8300,-54.8200,-105.3400,5.6200,-18.8200,-4.7000,0.0000,0.0000,-0.0000,1965.0000,1188.0000,1500.0000,2000.0000
561210.4630,2.0000,2000.0000,1000.0000,1348.0000,-384.0000,99.0000,-26.0000,791.0000,837.0000,-2158.0000,-0.7252,-0.2106,-0.0014,-0.6555,155.8300,-54.8200,-105.3400,5.6200,-18.8200,-4.7000,0.0000,0.0000,-0.0000,1965.0000,1188.0000,1500.0000,2000.0000
561227.0940,2.0000,2000.0000,1000.0000,1348.0000,-384.0000,126.0000,-48.0000,914.0000,947.0000,-1690.0000,-0.7400,-0.1587,0.0230,-0.6533,155.9800,-55.2100,-105.4100,5.8900,-18.9400,-4.3700,0.0000,0.0000,-0.0000,1965.0000,1188.0000,1500.0000,2000.0000
561243.8850,2.0000,2000.0000,1000.0000,1348.0000,-339.0000,149.0000,-73.0000,696.0000,986.0000,-1770.0000,-0.7539,-0.1064,0.0420,-0.6470,156.1300,-55.5800,-105.4900,6.1500,-19.0100,-4.0400,0.0000,0.0000,-0.0000,1965.0000,1188.0000,1500.0000,2000.0000
561260.8600,2.0000,2000.0000,1000.0000,1348.0000,-259.0000,173.0000,-91.0000,705.0000,898.0000,-2554.0000,-0.7670,-0.0576,0.0512,-0.6370,156.2900,-55.9800,-105.5500,6.2900,-18.9900,-3.7000,0.0000,0.0000,-0.0000,1965.0000,1188.0000,1500.0000,2000.0000
561277.5270,2.0000,2000.0000,1000.0000,1348.0000,-159.0000,174.0000,-108.0000,1183.0000,491.0000,-4254.0000,-0.7789,-0.0183,0.0498,-0.6249,156.4600,-56.3900,-105.6200,6.3800,-18.9100,-3.2200,0.0000,0.0000,-0.0000,1965.0000,1188.0000,1500.0000,2000.0000
561294.1360,2.0000,2000.0000,1000.0000,1459.0000,-41.0000,148.0000,-125.0000,1177.0000,273.0000,-6392.0000,-0.7907,0.0067,0.0399,-0.6109,156.6300,-56.7800,-105.6800,6.5200,-18.8500,-2.5800,0.0000,0.0000,-0.0000,1972.0000,1069.0000,1500.0000,2000.0000
561310.7480,2.0000,2000.0000,1000.0000,1460.0000,65.0000,102.0000,-138.0000,887.0000,196.0000,-8025.0000,-0.8029,0.0156,0.0243,-0.5953,156.6300,-56.7800,-105.6800,6.5200,-18.8500,-2.5800,0.0000,0.0000,-0.0000,1972.0000,1069.0000,1500.0000,2000.0000
561327.3310,2.0000,2000.0000,1000.0000,1460.0000,144.0000,27.0000,-151.0000,904.0000,-134.0000,-7936.0000,-0.8156,0.0085,0.0076,-0.5785,156.7800,-57.1400,-105.7300,6.6600,-18.7200,-1.8000,0.0000,0.0000,-0.0000,1972.0000,1069.0000,1500.0000,2000.0000
561344.2520,2.0000,2000.0000,1000.0000,1460.0000,188.0000,-42.0000,-158.0000,479.0000,-448.0000,-6699.0000,-0.8285,-0.0131,-0.0052,-0.5599,156.9300,-57.4700,-105.7800,6.7700,-18.5600,-1.0200,0.0000,0.0000,-0.0000,1972.0000,1069.0000,1500.0000,2000.0000
561361.3530,2.0000,2000.0000,1000.0000,1460.0000,220.0000,-91.0000,-152.0000,332.0000,-772.0000,-3424.0000,-0.8405,-0.0444,-0.0138,-0.5399,157.0900,-57.8400,-105.8300,6.7500,-18.3900,-0.3400,0.0000,0.0000,-0.0000,1972.0000,1069.0000,1500.0000,2000.0000
561377.8950,2.0000,2000.0000,1000.0000,1460.0000,247.0000,-128.0000,-143.0000,149.0000,-1213.0000,156.0000,-0.8500,-0.0811,-0.0198,-0.5201,157.2500,-58.2200,-105.8600,6.6600,-18.2000,0.1300,0.0000,0.0000,-0.0000,1972.0000,1069.0000,1500.0000,2000.0000
561394.6290,2.0000,1994.0000,1464.0000,2000.0000,278.0000,-158.0000,-122.0000,934.0000,-1573.0000,4158.0000,-0.8566,-0.1240,-0.0234,-0.5003,157.2500,-58.2200,-105.8600,6.6600,-18.2000,0.1300,0.0000,0.0000,-0.0000,1067.0000,1051.0000,1500.0000,1995.0000
561411.3080,2.0000,1994.0000,1484.0000,2000.0000,300.0000,-188.0000,-94.0000,742.0000,-2029.0000,6644.0000,-0.8588,-0.1723,-0.0243,-0.4818,157.4000,-58.5800,-105.8700,6.6800,-17.9700,0.4200,0.0000,0.0000,-0.0000,1067.0000,1051.0000,1500.0000,1995.0000
561427.9190,2.0000,1994.0000,1484.0000,2000.0000,303.0000,-194.0000,-66.0000,1248.0000,-2099.0000,9444.0000,-0.8563,-0.2230,-0.0238,-0.4652,157.5400,-58.9000,-105.8600,6.8100,-17.6400,0.4400,0.0000,0.0000,-0.0000,1067.0000,1051.0000,1500.0000,1995.0000
561444.6370,2.0000,1994.0000,1484.0000,2000.0000,257.0000,-189.0000,-33.0000,1578.0000,-2262.0000,11522.0000,-0.8502,-0.2711,-0.0206,-0.4508,157.6700,-59.2000,-105.8200,7.0400,-17.1800,0.2100,0.0000,0.0000,-0.0000,1067.0000,1051.0000,1500.0000,1995.0000
561461.4950,2.0000,1994.0000,1484.0000,2000.0000,179.0000,-177.0000,1.0000,1724.0000,-2150.0000,12937.0000,-0.8423,-0.3100,-0.0129,-0.4407,157.8200,-59.5300,-105.7700,7.3500,-16.6700,-0.1400,0.0000,0.0000,-0.0000,1067.0000,1051.0000,1500.0000,1995.0000
561478.2610,2.0000,1994.0000,1484.0000,2000.0000,96.0000,-153.0000,29.0000,1722.0000,-2049.0000,13645.0000,-0.8349,-0.3374,-0.0006,-0.4348,157.9800,-59.8800,-105.7200,7.6600,-16.1100,-0.6000,0.0000,0.0000,-0.0000,1067.0000,1051.0000,1500.0000,1995.0000
561495.1440,2.0000,1999.0000,1265.0000,2000.0000,22.0000,-127.0000,52.0000,1706.0000,-2203.0000,13742.0000,-0.8290,-0.3536,0.0148,-0.4329,157.9800,-59.8800,-105.7200,7.6600,-16.1100,-0.6000,0.0000,0.0000,-0.0000,1350.0000,1116.0000,1500.0000,2000.0000
561512.0890,2.0000,2000.0000,1265.0000,2000.0000,-34.0000,-102.0000,69.0000,1575.0000,-1817.0000,12870.0000,-0.8250,-0.3599,0.0324,-0.4345,158.1400,-60.1900,-105.6600,7.9500,-15.5000,-1.1100,0.0000,0.0000,-0.0000,1350.0000,1116.0000,1500.0000,2000.0000
561528.9240,2.0000,2000.0000,1265.0000,2000.0000,-60.0000,-83.0000,82.0000,1393.0000,-1335.0000,11692.0000,-0.8223,-0.3592,0.0508,-0.4385,158.2900,-60.4700,-105.6200,8.2000,-14.9000,-1.6600,0.0000,0.0000,-0.0000,1350.0000,1116.0000,1500.0000,2000.0000
561545.6070,2.0000,2000.0000,1265.0000,2000.0000,-57.0000,-79.0000,86.0000,1134.0000,-1173.0000,9721.0000,-0.8194,-0.3559,0.0685,-0.4441,158.4400,-60.7400,-105.6000,8.3400,-14.4000,-2.1500,0.0000,0.0000,-0.0000,1350.0000,1116.0000,1500.0000,2000.0000
561562.5400,2.0000,2000.0000,1265.0000,2000.0000,-51.0000,-87.0000,88.0000,989.0000,-955.0000,8906.0000,-0.8153,-0.3541,0.0866,-0.4498,158.6000,-61.0200,-105.5900,8.4300,-14.0400,-2.5100,0.0000,0.0000,-0.0000,1350.0000,1116.0000,1500.0000,2000.0000
561579.2780,2.0000,2000.0000,1265.0000,2000.0000,-69.0000,-93.0000,86.0000,716.0000,-445.0000,8351.0000,-0.8114,-0.3516,0.1061,-0.4546,158.7700,-61.3100,-105.5900,8.4700,-13.7300,-2.8500,0.0000,0.0000,-0.0000,1350.0000,1116.0000,1500.0000,2000.0000
561596.3180,2.0000,2000.0000,1000.0000,1463.0000,-85.0000,-103.0000,82.0000,880.0000,-448.0000,8208.0000,-0.8079,-0.3477,0.1274,-0.4585,158.7700,-61.3100,-105.5900,8.4700,-13.7300,-2.8500,0.0000,0.0000,-0.0000,1974.0000,1064.0000,1500.0000,2000.0000
561613.1900,2.0000,2000.0000,1000.0000,1463.0000,-77.0000,-118.0000,73.0000,1032.0000,-448.0000,8157.0000,-0.8045,-0.3436,0.1499,-0.4606,158.9400,-61.5900,-105.6000,8.4500,-13.4400,-3.1800,0.0000,0.0000,-0.0000,1974.0000,1064.0000,1500.0000,2000.0000
561630.1090,2.0000,2000.0000,1000.0000,1463.0000,-56.0000,-131.0000,52.0000,1333.0000,-197.0000,8725.0000,-0.8005,-0.3429,0.1725,-0.4603,159.0900,-61.8400,-105.6200,8.4000,-13.1600,-3.5300,0.0000,0.0000,-0.0000,1974.0000,1064.0000,1500.0000,2000.0000
561646.7050,2.0000,2000.0000,1000.0000,1463.0000,-25.0000,-144.0000,25.0000,1356.0000,43.0000,9199.0000,-0.7961,-0.3467,0.1933,-0.4568,159.2400,-62.0900,-105.6400,8.3200,-12.8600,-3.9300,0.0000,0.0000,-0.0000,1974.0000,1064.0000,1500.0000,2000.0000
561663.4990,2.0000,2000.0000,1000.0000,1463.0000,11.0000,-133.0000,-4.0000,1341.0000,177.0000,9715.0000,-0.7915,-0.3548,0.2103,-0.4510,159.4000,-62.3600,-105.6800,8.2000,-12.5300,-4.3900,0.0000,0.0000,-0.0000,1974.0000,1064.0000,1500.0000,2000.0000
561680.4900,2.0000,2000.0000,1000.0000,1463.0000,45.0000,-122.0000,-32.0000,1598.0000,-105.0000,10248.0000,-0.7869,-0.3675,0.2221,-0.4432,159.5500,-62.6200,-105.7200,8.0600,-12.1800,-4.8600,0.0000,0.0000,-0.0000,1974.0000,1064.0000,1500.0000,2000.0000
561697.3630,2.0000,2000.0000,1000.0000,1563.0000,71.0000,-107.0000,-53.0000,1572.0000,-88.0000,10187.0000,-0.7825,-0.3832,0.2290,-0.4340,159.5500,-62.6200,-105.7200,8.0600,-12.1800,-4.8600,0.0000,0.0000,-0.0000,1896.0000,1041.0000,1500.0000,2000.0000
561714.2130,2.0000,2000.0000,1000.0000,1564.0000,88.0000,-88.0000,-72.0000,1794.0000,-125.0000,10132.0000,-0.7785,-0.4006,0.2314,-0.4241,159.7000,-62.8800,-105.7600,7.9400,-11.8000,-5.3200,0.0000,0.0000,-0.0000,1896.0000,1041.0000,1500.0000,2000.0000
561730.7890,2.0000,2000.0000,1000.0000,1564.0000,100.0000,-86.0000,-89.0000,1463.0000,-116.0000,9082.0000,-0.7748,-0.4191,0.2305,-0.4133,159.8400,-63.1200,-105.8200,7.8200,-11.4300,-5.7600,0.0000,0.0000,-0.0000,1896.0000,1041.0000,1500.0000,2000.0000
561747.6760,2.0000,2000.0000,1000.0000,1564.0000,98.0000,-89.0000,-100.0000,1267.0000,-380.0000,8112.0000,-0.7712,-0.4389,0.2286,-0.4005,159.9600,-63.3400,-105.8800,7.7100,-11.1400,-6.0800,0.0000,0.0000,-0.0000,1896.0000,1041.0000,1500.0000,2000.0000
561764.8130,2.0000,2000.0000,1000.0000,1564.0000,93.0000,-87.0000,-106.0000,1228.0000,-465.0000,7612.0000,-0.7676,-0.4587,0.2260,-0.3863,160.1100,-63.5800,-105.9400,7.6700,-10.8900,-6.2800,0.0000,0.0000,-0.0000,1896.0000,1041.0000,1500.0000,2000.0000
561781.4980,2.0000,2000.0000,1000.0000,1564.0000,91.0000,-92.0000,-108.0000,1375.0000,-671.0000,7544.0000,-0.7642,-0.4774,0.2233,-0.3718,160.2500,-63.8300,-106.0000,7.6900,-10.6500,-6.4300,0.0000,0.0000,-0.0000,1896.0000,1041.0000,1500.0000,2000.0000
561798.3940,2.0000,2000.0000,1000.0000,1462.0000,93.0000,-97.0000,-107.0000,1260.0000,-816.0000,7462.0000,-0.7599,-0.4969,0.2211,-0.3562,160.2500,-63.8300,-106.0000,7.6900,-10.6500,-6.4300,0.0000,0.0000,-0.0000,1972.0000,1067.0000,1500.0000,2000.0000
561815.2630,2.0000,2000.0000,1000.0000,1462.0000,95.0000,-98.0000,-104.0000,1207.0000,-961.0000,7432.0000,-0.7549,-0.5158,0.2189,-0.3407,160.3900,-64.0700,-106.0700,7.7100,-10.4100,-6.5200,0.0000,0.0000,-0.0000,1972.0000,1067.0000,1500.0000,2000.0000
561832.2510,2.0000,2000.0000,1000.0000,1462.0000,110.0000,-100.0000,-100.0000,1163.0000,-1024.0000,7434.0000,-0.7487,-0.5353,0.2166,-0.3255,160.5200,-64.2900,-106.1400,7.7500,-10.1500,-6.5500,0.0000,0.0000,-0.0000,1972.0000,1067.0000,1500.0000,2000.0000
561849.2560,2.0000,2000.0000,1000.0000,1462.0000,130.0000,-96.0000,-91.0000,1348.0000,-1452.0000,7567.0000,-0.7403,-0.5562,0.2139,-0.3112,160.6500,-64.5000,-106.2000,7.7900,-9.8800,-6.5400,0.0000,0.0000,-0.0000,1972.0000,1067.0000,1500.0000,2000.0000
561866.1430,2.0000,2000.0000,1000.0000,1462.0000,152.0000,-92.0000,-83.0000,1354.0000,-1322.0000,7446.0000,-0.7294,-0.5785,0.2100,-0.2989,160.8000,-64.7100,-106.2800,8.0300,-9.4100,-6.4700,0.0000,0.0000,-0.0000,1972.0000,1067.0000,1500.0000,2000.0000
561882.9380,2.0000,2000.0000,1000.0000,1462.0000,168.0000,-90.0000,-75.0000,1231.0000,-1091.0000,7146.0000,-0.7159,-0.6020,0.2055,-0.2879,160.9700,-64.9200,-106.3500,8.3000,-8.9200,-6.3800,0.0000,0.0000,-0.0000,1972.0000,1067.0000,1500.0000,2000.0000
561899.8350,2.0000,2000.0000,1298.0000,2000.0000,178.0000,-87.0000,-65.0000,1225.0000,-1279.0000,7030.0000,-0.7002,-0.6262,0.2009,-0.2780,160.9700,-64.9200,-106.3500,8.3000,-8.9200,-6.3800,0.0000,0.0000,-0.0000,1231.0000,1029.0000,1500.0000,2000.0000
561916.5100,2.0000,2000.0000,1298.0000,2000.0000,189.0000,-87.0000,-58.0000,1179.0000,-1276.0000,6807.0000,-0.6827,-0.6502,0.1963,-0.2693,161.1300,-65.1100,-106.4200,8.5400,-8.4900,-6.2300,0.0000,0.0000,-0.0000,1231.0000,1029.0000,1500.0000,2000.0000
561933.1520,2.0000,2000.0000,1298.0000,2000.0000,176.0000,-88.0000,-47.0000,1207.0000,-1036.0000,6555.0000,-0.6646,-0.6730,0.1921,-0.2617,161.2900,-65.2800,-106.4900,8.7800,-8.1000,-6.0300,0.0000,0.0000,-0.0000,1231.0000,1029.0000,1500.0000,2000.0000
561950.2880,2.0000,2000.0000,1298.0000,2000.0000,132.0000,-98.0000,-34.0000,1358.0000,-885.0000,6257.0000,-0.6477,-0.6930,0.1910,-0.2527,161.4500,-65.4500,-106.5500,8.9800,-7.7800,-5.7900,0.0000,0.0000,-0.0000,1231.0000,1029.0000,1500.0000,2000.0000
561967.0710,2.0000,2000.0000,1298.0000,2000.0000,72.0000,-116.0000,-17.0000,1554.0000,-1094.0000,6077.0000,-0.6350,-0.7072,0.1945,-0.2425,161.6500,-65.6100,-106.6200,9.3400,-7.3100,-5.5400,0.0000,0.0000,-0.0000,1231.0000,1029.0000,1500.0000,2000.0000
561984.2020,2.0000,2000.0000,1298.0000,2000.0000,16.0000,-138.0000,-1.0000,1331.0000,-975.0000,5944.0000,-0.6272,-0.7158,0.2035,-0.2300,161.8500,-65.7700,-106.6800,9.7000,-6.8500,-5.2700,0.0000,0.0000,-0.0000,1231.0000,1029.0000,1500.0000,2000.0000
562001.1930,2.0000,2000.0000,1110.0000,1000.0000,-22.0000,-155.0000,13.0000,1452.0000,-887.0000,6487.0000,-0.6228,-0.7201,0.2175,-0.2150,161.8500,-65.7700,-106.6800,9.7000,-6.8500,-5.2700,0.0000,0.0000,-0.0000,1983.0000,1594.0000,1500.0000,2000.0000
562018.0150,2.0000,2000.0000,1110.0000,1000.0000,-43.0000,-174.0000,20.0000,1392.0000,-1005.0000,7074.0000,-0.6203,-0.7216,0.2349,-0.1982,162.0600,-65.9000,-106.7400,9.9900,-6.3900,-4.9800,0.0000,0.0000,-0.0000,1983.0000,1594.0000,1500.0000,2000.0000
562035.0970,2.0000,2000.0000,1110.0000,1000.0000,-43.0000,-178.0000,20.0000,1156.0000,-637.0000,7357.0000,-0.6181,-0.7218,0.2542,-0.1801,162.2600,-66.0200,-106.8000,10.2300,-5.8800,-4.6800,0.0000,0.0000,-0.0000,1983.0000,1594.0000,1500.0000,2000.0000
562052.0870,2.0000,2000.0000,1110.0000,1000.0000,-28.0000,-176.0000,13.0000,1429.0000,-388.0000,8176.0000,-0.6143,-0.7226,0.2725,-0.1618,162.4600,-66.1300,-106.8500,10.3700,-5.3500,-4.3600,0.0000,0.0000,-0.0000,1983.0000,1594.0000,1500.0000,2000.0000
562068.9130,2.0000,2000.0000,1110.0000,1000.0000,-2.0000,-167.0000,3.0000,1764.0000,-581.0000,9257.0000,-0.6085,-0.7251,0.2886,-0.1441,162.7000,-66.2300,-106.9100,10.6400,-4.6000,-4.0600,0.0000,0.0000,-0.0000,1983.0000,1594.0000,1500.0000,2000.0000
562085.9090,2.0000,2000.0000,1110.0000,1000.0000,40.0000,-139.0000,-5.0000,1734.0000,-582.0000,9816.0000,-0.6000,-0.7298,0.3013,-0.1287,162.9400,-66.3200,-106.9600,10.8700,-3.7700,-3.7100,0.0000,0.0000,-0.0000,1983.0000,1594.0000,1500.0000,2000.0000
562102.7430,2.0000,2000.0000,1000.0000,1350.0000,102.0000,-94.0000,-14.0000,1621.0000,-595.0000,10141.0000,-0.5875,-0.7386,0.3087,-0.1186,162.9400,-66.3200,-106.9600,10.8700,-3.7700,-3.7100,0.0000,0.0000,-0.0000,1851.0000,1298.0000,1500.0000,2000.0000
562119.5440,2.0000,2000.0000,1000.0000,1351.0000,177.0000,-44.0000,-17.0000,1503.0000,-630.0000,9932.0000,-0.5692,-0.7526,0.3099,-0.1164,163.1700,-66.3800,-107.0000,11.0300,-2.9600,-3.3100,0.0000,0.0000,-0.0000,1851.0000,1298.0000,1500.0000,2000.0000
562136.3960,2.0000,2000.0000,1000.0000,1351.0000,247.0000,11.0000,-25.0000,1254.0000,-407.0000,8159.0000,-0.5449,-0.7715,0.3046,-0.1232,163.4100,-66.4300,-107.0400,11.1800,-2.2200,-2.8600,0.0000,0.0000,-0.0000,1851.0000,1298.0000,1500.0000,2000.0000
562153.4670,2.0000,2000.0000,1000.0000,1351.0000,286.0000,42.0000,-39.0000,964.0000,168.0000,5092.0000,-0.5156,-0.7935,0.2930,-0.1364,163.6300,-66.4600,-107.0700,11.3500,-1.7500,-2.4400,0.0000,0.0000,-0.0000,1851.0000,1298.0000,1500.0000,2000.0000
562170.3650,2.0000,2000.0000,1000.0000,1351.0000,297.0000,39.0000,-59.0000,620.0000,340.0000,1995.0000,-0.4832,-0.8166,0.2777,-0.1499,163.9200,-66.4800,-107.0900,11.7900,-1.4700,-2.2000,0.0000,0.0000,-0.0000,1851.0000,1298.0000,1500.0000,2000.0000
562187.2480,2.0000,2000.0000,1611.0000,1921.0000,295.0000,29.0000,-73.0000,314.0000,451.0000,-14.0000,-0.4500,-0.8389,0.2603,-0.1613,164.2300,-66.5000,-107.1200,12.2600,-1.5100,-2.1100,0.0000,0.0000,-0.0000,1232.0000,1344.0000,1500.0000,2000.0000
562203.9800,2.0000,2000.0000,1613.0000,1923.0000,290.0000,17.0000,-84.0000,1016.0000,344.0000,-262.0000,-0.4165,-0.8597,0.2421,-0.1698,164.2300,-66.5000,-107.1200,12.2600,-1.5100,-2.1100,0.0000,0.0000,-0.0000,1232.0000,1344.0000,1500.0000,2000.0000
562220.8500,2.0000,2000.0000,1613.0000,1923.0000,252.0000,0.0000,-91.0000,1363.0000,280.0000,-665.0000,-0.3837,-0.8788,0.2236,-0.1746,164.5200,-66.5100,-107.1400,12.6700,-1.6300,-2.1000,0.0000,0.0000,-0.0000,1232.0000,1344.0000,1500.0000,2000.0000
562237.6760,2.0000,2000.0000,1613.0000,1923.0000,168.0000,-19.0000,-88.0000,1589.0000,186.0000,-761.0000,-0.3582,-0.8934,0.2071,-0.1751,164.8000,-66.5300,-107.1700,13.0500,-1.7500,-2.1300,0.0000,0.0000,-0.0000,1232.0000,1344.0000,1500.0000,2000.0000
562254.4480,2.0000,2000.0000,1613.0000,1923.0000,68.0000,-42.0000,-78.0000,1437.0000,-334.0000,-682.0000,-0.3442,-0.9026,0.1949,-0.1701,165.0800,-66.5500,-107.2000,13.4100,-1.8600,-2.1600,0.0000,0.0000,-0.0000,1232.0000,1344.0000,1500.0000,2000.0000
562271.2380,2.0000,2000.0000,1613.0000,1923.0000,-32.0000,-61.0000,-61.0000,1095.0000,-653.0000,-205.0000,-0.3424,-0.9066,0.1876,-0.1601,165.4300,-66.5600,-107.2500,13.8600,-1.7500,-2.1300,0.0000,0.0000,-0.0000,1232.0000,1344.0000,1500.0000,2000.0000
562288.2560,2.0000,2000.0000,1071.0000,1000.0000,-103.0000,-72.0000,-39.0000,957.0000,-1017.0000,530.0000,-0.3512,-0.9059,0.1859,-0.1465,165.7800,-66.5700,-107.3100,14.2800,-1.5900,-2.0100,0.0000,0.0000,-0.0000,1989.0000,1561.0000,1500.0000,2000.0000
562305.3170,2.0000,2000.0000,1071.0000,1000.0000,-152.0000,-69.0000,-21.0000,828.0000,-1018.0000,951.0000,-0.3676,-0.9011,0.1878,-0.1326,165.7800,-66.5700,-107.3100,14.2800,-1.5900,-2.0100,0.0000,0.0000,-0.0000,1989.0000,1561.0000,1500.0000,2000.0000
562322.1300,2.0000,2000.0000,1071.0000,1000.0000,-147.0000,-70.0000,-9.0000,1071.0000,-836.0000,1232.0000,-0.3863,-0.8943,0.1924,-0.1181,166.1200,-66.5800,-107.3600,14.6100,-1.4300,-1.8100,0.0000,0.0000,-0.0000,1989.0000,1561.0000,1500.0000,2000.0000
562339.1360,2.0000,2000.0000,1071.0000,1000.0000,-97.0000,-93.0000,-5.0000,1341.0000,-899.0000,1369.0000,-0.4008,-0.8885,0.1978,-0.1040,166.4400,-66.5800,-107.4000,14.9000,-1.2400,-1.5800,0.0000,0.0000,-0.0000,1989.0000,1561.0000,1500.0000,2000.0000
562356.0420,2.0000,2000.0000,1071.0000,1000.0000,-12.0000,-106.0000,-12.0000,1258.0000,-827.0000,1850.0000,-0.4053,-0.8869,0.2032,-0.0889,166.7400,-66.5700,-107.4400,15.1400,-1.0400,-1.3500,0.0000,0.0000,-0.0000,1989.0000,1561.0000,1500.0000,2000.0000
562372.7320,2.0000,2000.0000,1071.0000,1000.0000,85.0000,-96.0000,-22.0000,966.0000,-524.0000,3056.0000,-0.3976,-0.8908,0.2068,-0.0752,167.1300,-66.5400,-107.4900,15.5200,-0.4500,-1.0400,0.0000,0.0000,-0.0000,1989.0000,1561.0000,1500.0000,2000.0000
562389.6190,2.0000,2000.0000,1992.0000,1450.0000,198.0000,-68.0000,-27.0000,989.0000,-503.0000,4449.0000,-0.3767,-0.9004,0.2069,-0.0670,167.5200,-66.4900,-107.5300,15.8100,0.2500,-0.6300,0.0000,0.0000,-0.0000,1277.0000,1773.0000,1500.0000,2000.0000
562406.5120,2.0000,2000.0000,1994.0000,1450.0000,303.0000,-26.0000,-27.0000,784.0000,-645.0000,4461.0000,-0.3416,-0.9151,0.2032,-0.0672,167.5200,-66.4900,-107.5300,15.8100,0.2500,-0.6300,0.0000,0.0000,-0.0000,1277.0000,1773.0000,1500.0000,2000.0000
562423.3440,2.0000,2000.0000,1994.0000,1450.0000,348.0000,12.0000,-26.0000,878.0000,-438.0000,3571.0000,-0.2968,-0.9315,0.1968,-0.0749,167.8800,-66.4300,-107.5600,16.0400,0.8700,-0.1300,0.0000,0.0000,-0.0000,1277.0000,1773.0000,1500.0000,2000.0000
562440.0380,2.0000,2000.0000,1994.0000,1450.0000,324.0000,33.0000,-22.0000,1270.0000,-491.0000,1982.0000,-0.2513,-0.9453,0.1894,-0.0865,168.2300,-66.3600,-107.5800,16.2200,1.3600,0.2800,0.0000,0.0000,-0.0000,1277.0000,1773.0000,1500.0000,2000.0000
562457.0760,2.0000,2000.0000,1994.0000,1450.0000,240.0000,54.0000,-16.0000,1286.0000,-324.0000,351.0000,-0.2128,-0.9549,0.1817,-0.0997,168.6700,-66.2500,-107.6000,16.6200,1.9800,0.5600,0.0000,0.0000,-0.0000,1277.0000,1773.0000,1500.0000,2000.0000
562473.8900,2.0000,2000.0000,1994.0000,1450.0000,136.0000,89.0000,-5.0000,1090.0000,-64.0000,-610.0000,-0.1882,-0.9596,0.1754,-0.1140,169.0900,-66.1400,-107.6200,16.9500,2.4700,0.6200,0.0000,0.0000,-0.0000,1277.0000,1773.0000,1500.0000,2000.0000
562490.6930,2.0000,2000.0000,1942.0000,1760.0000,28.0000,130.0000,9.0000,1071.0000,-249.0000,-1227.0000,-0.1798,-0.9597,0.1717,-0.1308,169.5000,-66.0200,-107.6500,17.1800,2.8700,0.5500,0.0000,0.0000,-0.0000,1142.0000,1585.0000,1500.0000,2000.0000
562507.7710,2.0000,2000.0000,1941.0000,1775.0000,-70.0000,174.0000,20.0000,1092.0000,-2.0000,-2338.0000,-0.1871,-0.9553,0.1705,-0.1524,169.5000,-66.0200,-107.6500,17.1800,2.8700,0.5500,0.0000,0.0000,-0.0000,1142.0000,1585.0000,1500.0000,2000.0000
562524.7280,2.0000,2000.0000,1941.0000,1775.0000,-141.0000,188.0000,27.0000,1293.0000,27.0000,-4655.0000,-0.2065,-0.9470,0.1715,-0.1763,169.8800,-65.9000,-107.6900,17.3200,3.1700,0.3500,0.0000,0.0000,-0.0000,1142.0000,1585.0000,1500.0000,2000.0000
562541.4280,2.0000,2000.0000,1941.0000,1775.0000,-197.0000,155.0000,28.0000,1570.0000,162.0000,-7395.0000,-0.2335,-0.9361,0.1747,-0.1967,170.2400,-65.7800,-107.7600,17.3800,3.3300,-0.2700,0.0000,0.0000,-0.0000,1142.0000,1585.0000,1500.0000,2000.0000
562558.2980,2.0000,2000.0000,1941.0000,1775.0000,-261.0000,106.0000,26.0000,1065.0000,565.0000,-8845.0000,-0.2678,-0.9229,0.1808,-0.2092,170.7000,-65.6300,-107.8700,17.5800,3.5400,-1.1400,0.0000,0.0000,-0.0000,1142.0000,1585.0000,1500.0000,2000.0000
562575.1460,2.0000,2000.0000,1941.0000,1775.0000,-331.0000,55.0000,22.0000,808.0000,736.0000,-8223.0000,-0.3091,-0.9073,0.1901,-0.2125,171.1300,-65.4800,-108.0200,17.6300,3.6000,-2.0700,0.0000,0.0000,-0.0000,1142.0000,1585.0000,1500.0000,2000.0000
562592.0690,2.0000,2000.0000,1072.0000,1000.0000,-380.0000,8.0000,15.0000,886.0000,623.0000,-6518.0000,-0.3569,-0.8882,0.2025,-0.2068,171.5400,-65.3500,-108.1900,17.6900,3.6600,-2.7200,0.0000,0.0000,-0.0000,1990.0000,1562.0000,1500.0000,2000.0000
562608.9460,2.0000,2000.0000,1071.0000,1000.0000,-410.0000,-15.0000,3.0000,772.0000,798.0000,-4641.0000,-0.4076,-0.8658,0.2154,-0.1944,171.5400,-65.3500,-108.1900,17.6900,3.6600,-2.7200,0.0000,0.0000,-0.0000,1990.0000,1562.0000,1500.0000,2000.0000
562625.8720,2.0000,2000.0000,1071.0000,1000.0000,-424.0000,-29.0000,-14.0000,843.0000,579.0000,-2916.0000,-0.4597,-0.8400,0.2270,-0.1778,171.9200,-65.2200,-108.3800,17.7900,3.7700,-3.1400,0.0000,0.0000,-0.0000,1990.0000,1562.0000,1500.0000,2000.0000
562642.6740,2.0000,2000.0000,1071.0000,1000.0000,-403.0000,-18.0000,-35.0000,1026.0000,336.0000,-1342.0000,-0.5096,-0.8120,0.2356,-0.1593,172.2700,-65.1000,-108.5800,17.9100,3.9800,-3.3600,0.0000,0.0000,-0.0000,1990.0000,1562.0000,1500.0000,2000.0000
562659.6750,2.0000,2000.0000,1071.0000,1000.0000,-328.0000,-4.0000,-61.0000,903.0000,473.0000,-56.0000,-0.5538,-0.7850,0.2391,-0.1409,172.7300,-64.9400,-108.7900,18.2400,4.2900,-3.4100,0.0000,0.0000,-0.0000,1990.0000,1562.0000,1500.0000,2000.0000
562676.4410,2.0000,2000.0000,1071.0000,1000.0000,-211.0000,29.0000,-86.0000,1036.0000,625.0000,984.0000,-0.5864,-0.7647,0.2353,-0.1263,173.1800,-64.7800,-108.9900,18.5000,4.6800,-3.3500,0.0000,0.0000,-0.0000,1990.0000,1562.0000,1500.0000,2000.0000
562693.4800,2.0000,1000.0000,1486.0000,1000.0000,-37.0000,71.0000,-109.0000,1213.0000,378.0000,957.0000,-0.6042,-0.7559,0.2221,-0.1189,173.5900,-64.6200,-109.1800,18.7200,5.0900,-3.1800,0.0000,0.0000,-0.0000,1993.0000,1979.0000,1500.0000,1000.0000
562710.3600,2.0000,1000.0000,1486.0000,1000.0000,139.0000,93.0000,-133.0000,710.0000,193.0000,-156.0000,-0.6029,-0.7631,0.2004,-0.1188,173.5900,-64.6200,-109.1800,18.7200,5.0900,-3.1800,0.0000,0.0000,-0.0000,1993.0000,1979.0000,1500.0000,1000.0000
562727.0470,2.0000,1000.0000,1486.0000,1000.0000,279.0000,110.0000,-149.0000,26.0000,255.0000,-1357.0000,-0.5840,-0.7837,0.1719,-0.1235,173.9900,-64.4700,-109.3500,18.8800,5.3600,-2.9900,0.0000,0.0000,-0.0000,1993.0000,1979.0000,1500.0000,1000.0000
562743.6790,2.0000,1000.0000,1486.0000,1000.0000,355.0000,136.0000,-153.0000,-114.0000,412.0000,-2721.0000,-0.5522,-0.8114,0.1389,-0.1317,174.3700,-64.3200,-109.5100,18.9500,5.4400,-2.8200,0.0000,0.0000,-0.0000,1993.0000,1979.0000,1500.0000,1000.0000
562760.7600,2.0000,1000.0000,1486.0000,1000.0000,385.0000,147.0000,-145.0000,-243.0000,383.0000,-4056.0000,-0.5121,-0.8407,0.1022,-0.1437,174.8300,-64.1600,-109.6500,18.9700,5.2900,-2.7700,0.0000,0.0000,-0.0000,1993.0000,1979.0000,1500.0000,1000.0000
562777.4910,2.0000,1838.0000,2000.0000,1362.0000,376.0000,134.0000,-130.0000,-338.0000,60.0000,-5022.0000,-0.4694,-0.8665,0.0675,-0.1557,175.2500,-64.0200,-109.7800,18.9000,5.0200,-2.8500,0.0000,0.0000,-0.0000,1129.0000,1839.0000,1500.0000,2000.0000
562794.5360,2.0000,2000.0000,2000.0000,1533.0000,365.0000,116.0000,-111.0000,-427.0000,-309.0000,-5174.0000,-0.4252,-0.8890,0.0361,-0.1659,175.6500,-63.8900,-109.9100,18.7700,4.7000,-3.1400,0.0000,0.0000,-0.0000,1129.0000,1839.0000,1500.0000,2000.0000
562811.0430,2.0000,2000.0000,2000.0000,1533.0000,347.0000,96.0000,-91.0000,-480.0000,-486.0000,-4715.0000,-0.3822,-0.9074,0.0097,-0.1743,175.6500,-63.8900,-109.9100,18.7700,4.7000,-3.1400,0.0000,0.0000,-0.0000,1129.0000,1839.0000,1500.0000,2000.0000
