t_ms,msp,motor,servo0,servo1,gyro_p,gyro_q,gyro_r,acc_x,acc_y,acc_z,qw,qx,qy,qz,pos_n,pos_e,pos_d,vel_n,vel_e,vel_d,tgtpos_n,tgtpos_e,tgtpos_d,rcData0,rcData1,rcData2,rcData3
286484.4500,3.0000,1591.0000,1448.0000,1498.0000,7.0000,7.0000,-2.0000,-71.0000,-250.0000,1672.0000,-0.0725,0.1719,0.1051,-0.9768,183.5700,-36.3300,-64.7400,-19.5400,1.3900,4.5100,0.0000,0.0000,-0.0000,1500.0000,1500.0000,1500.0000,1613.0000
286501.1350,3.0000,1589.0000,1446.0000,1496.0000,5.0000,6.0000,-5.0000,-54.0000,-161.0000,1671.0000,-0.0735,0.1727,0.1048,-0.9766,183.5700,-36.3300,-64.7400,-19.5400,1.3900,4.5100,0.0000,0.0000,-0.0000,1500.0000,1500.0000,1500.0000,1612.0000
286517.8250,3.0000,1589.0000,1447.0000,1497.0000,5.0000,6.0000,-7.0000,-63.0000,-130.0000,1544.0000,-0.0748,0.1726,0.1038,-0.9766,183.1600,-36.3000,-64.6600,-19.5600,1.3900,4.5400,0.0000,0.0000,-0.0000,1500.0000,1500.0000,1500.0000,1612.0000
286534.5460,3.0000,1589.0000,1447.0000,1497.0000,6.0000,6.0000,-10.0000,-134.0000,-113.0000,1448.0000,-0.0766,0.1725,0.1026,-0.9767,182.7500,-36.2700,-64.5800,-19.5700,1.3900,4.5900,0.0000,0.0000,-0.0000,1500.0000,1500.0000,1500.0000,1612.0000
286550.9980,3.0000,1588.0000,1449.0000,1499.0000,9.0000,6.0000,-11.0000,-104.0000,-235.0000,1303.0000,-0.0787,0.1741,0.1029,-0.9762,182.3500,-36.2400,-64.4900,-19.5500,1.3900,4.6500,0.0000,0.0000,-0.0000,1500.0000,1500.0000,1500.0000,1611.0000
286567.6700,3.0000,1588.0000,1449.0000,1501.0000,10.0000,7.0000,-11.0000,-85.0000,-274.0000,1049.0000,-0.0810,0.1758,0.1027,-0.9757,181.9200,-36.2000,-64.4100,-19.5900,1.3700,4.7200,0.0000,0.0000,-0.0000,1500.0000,1500.0000,1500.0000,1612.0000
286584.1170,3.0000,1589.0000,1452.0000,1504.0000,15.0000,8.0000,-10.0000,-101.0000,-288.0000,939.0000,-0.0831,0.1774,0.1021,-0.9753,181.5100,-36.1700,-64.3200,-19.6100,1.3300,4.8200,0.0000,0.0000,-0.0000,1500.0000,1498.0000,1500.0000,1612.0000
286600.7800,3.0000,1589.0000,1458.0000,1510.0000,26.0000,6.0000,-12.0000,-226.0000,-179.0000,1098.0000,-0.0857,0.1790,0.1003,-0.9750,181.5100,-36.1700,-64.3200,-19.6100,1.3300,4.8200,0.0000,0.0000,-0.0000,1500.0000,1498.0000,1500.0000,1612.0000
286617.3500,3.0000,1590.0000,1462.0000,1514.0000,32.0000,7.0000,-12.0000,-278.0000,-114.0000,1222.0000,-0.0885,0.1805,0.0976,-0.9747,181.1000,-36.1400,-64.2400,-19.6200,1.3100,4.9100,0.0000,0.0000,-0.0000,1500.0000,1500.0000,1500.0000,1613.0000
286634.2340,3.0000,1590.0000,1467.0000,1519.0000,42.0000,6.0000,-12.0000,-221.0000,-202.0000,1142.0000,-0.0916,0.1820,0.0938,-0.9745,180.6900,-36.1100,-64.1500,-19.6200,1.2900,4.9900,0.0000,0.0000,-0.0000,1500.0000,1500.0000,1500.0000,1612.0000
286650.9050,3.0000,1589.0000,1470.0000,1522.0000,48.0000,6.0000,-11.0000,-178.0000,-270.0000,1059.0000,-0.0948,0.1831,0.0888,-0.9745,180.2900,-36.0800,-64.0500,-19.6100,1.2700,5.0600,0.0000,0.0000,-0.0000,1500.0000,1500.0000,1500.0000,1612.0000
286667.4270,3.0000,1589.0000,1469.0000,1521.0000,45.0000,6.0000,-10.0000,-203.0000,-166.0000,1030.0000,-0.0976,0.1837,0.0817,-0.9747,179.8700,-36.0600,-63.9600,-19.6400,1.2300,5.1500,0.0000,0.0000,-0.0000,1500.0000,1500.0000,1500.0000,1612.0000
286684.2720,3.0000,1589.0000,1462.0000,1514.0000,33.0000,5.0000,-9.0000,-217.0000,-109.0000,1080.0000,-0.1003,0.1851,0.0774,-0.9745,179.4500,-36.0300,-63.8700,-19.6600,1.2100,5.2400,0.0000,0.0000,-0.0000,1500.0000,1500.0000,1500.0000,1612.0000
286701.1010,3.0000,1591.0000,1453.0000,1507.0000,20.0000,7.0000,-8.0000,-255.0000,-147.0000,1280.0000,-0.1026,0.1867,0.0750,-0.9742,179.4500,-36.0300,-63.8700,-19.6600,1.2100,5.2400,0.0000,0.0000,-0.0000,1500.0000,1500.0000,1500.0000,1613.0000
286717.8870,3.0000,1589.0000,1449.0000,1503.0000,11.0000,7.0000,-8.0000,-253.0000,-179.0000,1408.0000,-0.1043,0.1878,0.0730,-0.9739,179.0400,-36.0000,-63.7700,-19.6700,1.1800,5.3100,0.0000,0.0000,-0.0000,1500.0000,1500.0000,1500.0000,1612.0000
286734.6660,3.0000,1589.0000,1448.0000,1502.0000,8.0000,7.0000,-8.0000,-247.0000,-245.0000,1432.0000,-0.1059,0.1887,0.0716,-0.9737,178.6400,-35.9800,-63.6800,-19.6800,1.1600,5.3700,0.0000,0.0000,-0.0000,1500.0000,1500.0000,1500.0000,1612.0000
286751.4680,3.0000,1589.0000,1450.0000,1502.0000,7.0000,5.0000,-7.0000,-267.0000,-157.0000,1387.0000,-0.1075,0.1905,0.0717,-0.9731,178.2500,-35.9600,-63.5800,-19.6900,1.1200,5.4200,0.0000,0.0000,-0.0000,1500.0000,1500.0000,1500.0000,1612.0000
286768.1880,3.0000,1589.0000,1446.0000,1500.0000,1.0000,7.0000,-5.0000,-169.0000,-212.0000,1887.0000,-0.1089,0.1922,0.0722,-0.9726,177.8200,-35.9300,-63.4800,-19.7300,1.0900,5.4600,0.0000,0.0000,-0.0000,1500.0000,1500.0000,1500.0000,1612.0000
286784.8980,3.0000,1589.0000,1443.0000,1499.0000,-3.0000,7.0000,-3.0000,-114.0000,-286.0000,2121.0000,-0.1099,0.1939,0.0736,-0.9721,177.8200,-35.9300,-63.4800,-19.7300,1.0900,5.4600,0.0000,0.0000,-0.0000,1500.0000,1500.0000,1500.0000,1612.0000
286801.4710,3.0000,1588.0000,1441.0000,1497.0000,-6.0000,7.0000,0.0000,-127.0000,-344.0000,1876.0000,-0.1103,0.1958,0.0755,-0.9715,177.4000,-35.9100,-63.3800,-19.7900,1.0600,5.4700,0.0000,0.0000,-0.0000,1500.0000,1500.0000,1500.0000,1611.0000
286818.1490,3.0000,1590.0000,1444.0000,1498.0000,-4.0000,6.0000,3.0000,-119.0000,-408.0000,1795.0000,-0.1103,0.1977,0.0774,-0.9710,176.9800,-35.8900,-63.2800,-19.8300,1.0200,5.4800,0.0000,0.0000,-0.0000,1500.0000,1498.0000,1500.0000,1613.0000
286835.0530,3.0000,1589.0000,1445.0000,1499.0000,-3.0000,6.0000,5.0000,-172.0000,-421.0000,1735.0000,-0.1101,0.1996,0.0788,-0.9705,176.5700,-35.8700,-63.1800,-19.8600,0.9700,5.4900,0.0000,0.0000,-0.0000,1500.0000,1500.0000,1500.0000,1612.0000
286851.8170,3.0000,1590.0000,1445.0000,1501.0000,-1.0000,7.0000,6.0000,-204.0000,-246.0000,1535.0000,-0.1097,0.2017,0.0800,-0.9700,176.1800,-35.8500,-63.0800,-19.8700,0.9300,5.5200,0.0000,0.0000,-0.0000,1500.0000,1500.0000,1500.0000,1613.0000
286868.5840,3.0000,1589.0000,1442.0000,1498.0000,-6.0000,7.0000,6.0000,-238.0000,-142.0000,1461.0000,-0.1090,0.2028,0.0803,-0.9698,175.7400,-35.8400,-62.9800,-19.9100,0.9100,5.5600,0.0000,0.0000,-0.0000,1500.0000,1500.0000,1500.0000,1611.0000
286885.2170,3.0000,1588.0000,1443.0000,1497.0000,-6.0000,5.0000,4.0000,-209.0000,-155.0000,1315.0000,-0.1084,0.2046,0.0820,-0.9694,175.7400,-35.8400,-62.9800,-19.9100,0.9100,5.5600,0.0000,0.0000,-0.0000,1500.0000,1500.0000,1500.0000,1611.0000
286901.9540,3.0000,1589.0000,1444.0000,1498.0000,-3.0000,5.0000,2.0000,-275.0000,-104.0000,1155.0000,-0.1081,0.2066,0.0837,-0.9688,175.3200,-35.8200,-62.8800,-19.9300,0.8900,5.6300,0.0000,0.0000,-0.0000,1500.0000,1498.0000,1500.0000,1612.0000
286918.7120,3.0000,1591.0000,1444.0000,1500.0000,-3.0000,5.0000,1.0000,-276.0000,-30.0000,996.0000,-0.1082,0.2086,0.0850,-0.9683,174.9100,-35.8000,-62.7800,-19.9300,0.8800,5.7000,0.0000,0.0000,-0.0000,1500.0000,1500.0000,1500.0000,1613.0000
286935.5310,3.0000,1589.0000,1445.0000,1499.0000,-3.0000,4.0000,-3.0000,-231.0000,-4.0000,767.0000,-0.1086,0.2105,0.0864,-0.9677,174.5000,-35.7900,-62.6700,-19.9200,0.8700,5.7900,0.0000,0.0000,-0.0000,1500.0000,1500.0000,1500.0000,1612.0000
286952.1210,3.0000,1589.0000,1445.0000,1499.0000,-2.0000,4.0000,-7.0000,-293.0000,34.0000,639.0000,-0.1097,0.2123,0.0879,-0.9670,174.1000,-35.7700,-62.5700,-19.8900,0.8600,5.9100,0.0000,0.0000,-0.0000,1500.0000,1500.0000,1500.0000,1612.0000
286968.7430,3.0000,1591.0000,1446.0000,1500.0000,0.0000,4.0000,-10.0000,-271.0000,-32.0000,433.0000,-0.1112,0.2139,0.0892,-0.9664,173.6800,-35.7600,-62.4600,-19.9000,0.8300,6.0400,0.0000,0.0000,-0.0000,1500.0000,1500.0000,1500.0000,1613.0000
286985.3400,3.0000,1589.0000,1447.0000,1501.0000,1.0000,3.0000,-10.0000,-223.0000,-129.0000,315.0000,-0.1130,0.2150,0.0899,-0.9659,173.6800,-35.7600,-62.4600,-19.9000,0.8300,6.0400,0.0000,0.0000,-0.0000,1500.0000,1500.0000,1500.0000,1612.0000
287001.9840,3.0000,1588.0000,1447.0000,1501.0000,2.0000,2.0000,-10.0000,-396.0000,26.0000,646.0000,-0.1147,0.2161,0.0909,-0.9653,173.2600,-35.7500,-62.3500,-19.8900,0.7900,6.2000,0.0000,0.0000,-0.0000,1500.0000,1500.0000,1500.0000,1611.0000
287018.7040,3.0000,1588.0000,1449.0000,1501.0000,3.0000,2.0000,-9.0000,-355.0000,-214.0000,1163.0000,-0.1165,0.2175,0.0919,-0.9647,172.8500,-35.7400,-62.2400,-19.8800,0.7600,6.3200,0.0000,0.0000,-0.0000,1500.0000,1500.0000,1500.0000,1612.0000
287035.7260,3.0000,1589.0000,1446.0000,1500.0000,0.0000,4.0000,-8.0000,-368.0000,-199.0000,1196.0000,-0.1182,0.2188,0.0929,-0.9641,172.4500,-35.7200,-62.1200,-19.8700,0.7300,6.3900,0.0000,0.0000,-0.0000,1500.0000,1500.0000,1500.0000,1612.0000
287052.3720,3.0000,1590.0000,1449.0000,1503.0000,6.0000,3.0000,-7.0000,-326.0000,-271.0000,1170.0000,-0.1196,0.2204,0.0937,-0.9635,172.0600,-35.7100,-62.0100,-19.8700,0.7000,6.4600,0.0000,0.0000,-0.0000,1500.0000,1500.0000,1500.0000,1613.0000
287068.9900,3.0000,1589.0000,1450.0000,1506.0000,8.0000,4.0000,-3.0000,-300.0000,-317.0000,1359.0000,-0.1210,0.2217,0.0937,-0.9630,172.0600,-35.7100,-62.0100,-19.8700,0.7000,6.4600,0.0000,0.0000,-0.0000,1500.0000,1500.0000,1500.0000,1612.0000
287085.5410,3.0000,1589.0000,1444.0000,1500.0000,-2.0000,5.0000,1.0000,-300.0000,-318.0000,1295.0000,-0.1216,0.2232,0.0945,-0.9625,171.6300,-35.7100,-61.8900,-19.9000,0.6600,6.5200,0.0000,0.0000,-0.0000,1500.0000,1500.0000,1500.0000,1612.0000
287102.1590,3.0000,1588.0000,1444.0000,1502.0000,1.0000,7.0000,6.0000,-381.0000,-304.0000,1670.0000,-0.1213,0.2247,0.0954,-0.9621,171.2200,-35.7000,-61.7700,-19.9200,0.6200,6.5800,0.0000,0.0000,-0.0000,1500.0000,1500.0000,1500.0000,1611.0000
287118.7400,3.0000,1588.0000,1444.0000,1502.0000,1.0000,6.0000,10.0000,-340.0000,-279.0000,1697.0000,-0.1204,0.2253,0.0947,-0.9622,170.8100,-35.6900,-61.6500,-19.9400,0.5800,6.6100,0.0000,0.0000,-0.0000,1500.0000,1500.0000,1500.0000,1611.0000
287135.4480,3.0000,1591.0000,1444.0000,1500.0000,-3.0000,4.0000,2.0000,-369.0000,12.0000,1383.0000,-0.1198,0.2267,0.0950,-0.9619,170.4000,-35.6800,-61.5300,-19.9600,0.5600,6.6300,0.0000,0.0000,-0.0000,1500.0000,1498.0000,1500.0000,1613.0000
287152.2200,3.0000,1589.0000,1440.0000,1496.0000,-8.0000,4.0000,-9.0000,-426.0000,267.0000,1312.0000,-0.1203,0.2280,0.0958,-0.9614,169.9600,-35.6800,-61.4100,-19.9900,0.5600,6.6900,0.0000,0.0000,-0.0000,1500.0000,1498.0000,1500.0000,1612.0000
287168.7410,3.0000,1591.0000,1440.0000,1496.0000,-8.0000,4.0000,-13.0000,-482.0000,165.0000,1410.0000,-0.1217,0.2293,0.0975,-0.9608,169.9600,-35.6800,-61.4100,-19.9900,0.5600,6.6900,0.0000,0.0000,-0.0000,1500.0000,1500.0000,1500.0000,1613.0000
287185.4150,3.0000,1589.0000,1439.0000,1497.0000,-8.0000,5.0000,-15.0000,-451.0000,-33.0000,1821.0000,-0.1238,0.2305,0.0996,-0.9600,169.5400,-35.6700,-61.2900,-20.0100,0.5800,6.7500,0.0000,0.0000,-0.0000,1500.0000,1500.0000,1500.0000,1612.0000
287202.0070,3.0000,1589.0000,1439.0000,1497.0000,-9.0000,5.0000,-18.0000,-392.0000,-44.0000,2033.0000,-0.1260,0.2321,0.1022,-0.9591,169.1200,-35.6700,-61.1700,-20.0300,0.5800,6.7800,0.0000,0.0000,-0.0000,1500.0000,1500.0000,1500.0000,1612.0000
287218.8430,2.0000,1679.0000,1427.0000,1639.0000,-7.0000,5.0000,-24.0000,-352.0000,-124.0000,1926.0000,-0.1291,0.2336,0.1049,-0.9580,168.7200,-35.6600,-61.0500,-20.0600,0.5700,6.7900,0.0000,0.0000,-0.0000,1348.0000,1024.0000,1500.0000,2000.0000
287235.6910,2.0000,2000.0000,1175.0000,2000.0000,-3.0000,5.0000,-22.0000,-393.0000,-246.0000,1713.0000,-0.1325,0.2351,0.1073,-0.9569,168.3100,-35.6600,-60.9300,-20.0800,0.5500,6.8100,0.0000,0.0000,-0.0000,1348.0000,1024.0000,1500.0000,2000.0000
287252.5610,2.0000,2000.0000,1175.0000,2000.0000,-6.0000,-6.0000,-19.0000,-375.0000,-249.0000,1261.0000,-0.1353,0.2361,0.1093,-0.9560,167.8700,-35.6600,-60.8000,-20.1200,0.5200,6.8500,0.0000,0.0000,-0.0000,1348.0000,1024.0000,1500.0000,2000.0000
287269.4770,2.0000,2000.0000,1175.0000,2000.0000,-13.0000,-45.0000,-21.0000,-312.0000,-248.0000,311.0000,-0.1375,0.2330,0.1119,-0.9562,167.8700,-35.6600,-60.8000,-20.1200,0.5200,6.8500,0.0000,0.0000,-0.0000,1348.0000,1024.0000,1500.0000,2000.0000
287286.2320,2.0000,2000.0000,1175.0000,2000.0000,-30.0000,-95.0000,-20.0000,-187.0000,-236.0000,799.0000,-0.1388,0.2241,0.1175,-0.9574,167.4500,-35.6500,-60.6800,-20.1100,0.4600,6.9700,0.0000,0.0000,-0.0000,1348.0000,1024.0000,1500.0000,2000.0000
287302.9180,2.0000,2000.0000,1175.0000,2000.0000,-46.0000,-142.0000,-15.0000,-207.0000,-239.0000,2423.0000,-0.1382,0.2091,0.1267,-0.9597,167.0300,-35.6500,-60.5500,-20.1000,0.4000,7.0900,0.0000,0.0000,-0.0000,1348.0000,1024.0000,1500.0000,2000.0000
287319.6120,2.0000,2000.0000,1000.0000,1565.0000,-55.0000,-192.0000,-9.0000,-28.0000,-507.0000,5347.0000,-0.1354,0.1865,0.1375,-0.9633,166.6200,-35.6600,-60.4300,-20.1500,0.3700,7.0800,0.0000,0.0000,-0.0000,1945.0000,1047.0000,1500.0000,2000.0000
287336.6410,2.0000,2000.0000,1000.0000,1509.0000,-59.0000,-223.0000,-3.0000,321.0000,-743.0000,8428.0000,-0.1305,0.1577,0.1500,-0.9673,166.2100,-35.6600,-60.3000,-20.3200,0.3900,6.7700,0.0000,0.0000,-0.0000,1945.0000,1047.0000,1500.0000,2000.0000
287353.2360,2.0000,2000.0000,1000.0000,1509.0000,-43.0000,-226.0000,-4.0000,750.0000,-1142.0000,11361.0000,-0.1251,0.1271,0.1618,-0.9706,166.2100,-35.6600,-60.3000,-20.3200,0.3900,6.7700,0.0000,0.0000,-0.0000,1945.0000,1047.0000,1500.0000,2000.0000
287370.0210,2.0000,2000.0000,1000.0000,1509.0000,1.0000,-214.0000,-7.0000,1209.0000,-1142.0000,13597.0000,-0.1207,0.0961,0.1689,-0.9735,165.7600,-35.6700,-60.1800,-20.6300,0.4700,6.1500,0.0000,0.0000,-0.0000,1945.0000,1047.0000,1500.0000,2000.0000
287387.1910,2.0000,2000.0000,1000.0000,1509.0000,38.0000,-186.0000,-12.0000,1503.0000,-1228.0000,15046.0000,-0.1178,0.0664,0.1695,-0.9762,165.3100,-35.6700,-60.0800,-20.9500,0.6300,5.2800,0.0000,0.0000,-0.0000,1945.0000,1047.0000,1500.0000,2000.0000
287403.7190,2.0000,2000.0000,1000.0000,1509.0000,71.0000,-154.0000,-17.0000,1540.0000,-1246.0000,15526.0000,-0.1170,0.0414,0.1645,-0.9785,164.8700,-35.6700,-59.9800,-21.2200,0.8400,4.1800,0.0000,0.0000,-0.0000,1945.0000,1047.0000,1500.0000,2000.0000
287420.5250,2.0000,2000.0000,1427.0000,2000.0000,86.0000,-112.0000,-26.0000,1279.0000,-1145.0000,15003.0000,-0.1181,0.0209,0.1555,-0.9805,164.4500,-35.6700,-59.9100,-21.3900,1.0600,3.0000,0.0000,0.0000,-0.0000,1096.0000,1027.0000,1500.0000,2000.0000
287437.4710,2.0000,2000.0000,1431.0000,2000.0000,95.0000,-67.0000,-33.0000,998.0000,-1136.0000,13558.0000,-0.1211,0.0060,0.1439,-0.9821,164.0200,-35.6600,-59.8500,-21.4500,1.2400,1.8600,0.0000,0.0000,-0.0000,1096.0000,1027.0000,1500.0000,2000.0000
287454.4230,2.0000,2000.0000,1431.0000,2000.0000,85.0000,-35.0000,-37.0000,770.0000,-862.0000,11210.0000,-0.1257,-0.0030,0.1312,-0.9833,164.0200,-35.6600,-59.8500,-21.4500,1.2400,1.8600,0.0000,0.0000,-0.0000,1096.0000,1027.0000,1500.0000,2000.0000
287471.2090,2.0000,2000.0000,1431.0000,2000.0000,44.0000,-27.0000,-32.0000,612.0000,-640.0000,9203.0000,-0.1307,-0.0087,0.1223,-0.9838,163.5600,-35.6400,-59.8200,-21.4500,1.3400,0.9000,0.0000,0.0000,-0.0000,1096.0000,1027.0000,1500.0000,2000.0000
287488.0490,2.0000,2000.0000,1431.0000,2000.0000,-16.0000,-31.0000,-21.0000,594.0000,-799.0000,8093.0000,-0.1345,-0.0135,0.1209,-0.9834,163.1100,-35.6300,-59.8000,-21.3800,1.3700,0.1800,0.0000,0.0000,-0.0000,1096.0000,1027.0000,1500.0000,2000.0000
287504.7650,2.0000,2000.0000,1431.0000,2000.0000,-65.0000,-47.0000,-7.0000,543.0000,-928.0000,7196.0000,-0.1364,-0.0184,0.1278,-0.9822,162.6700,-35.6200,-59.7900,-21.2900,1.3500,-0.3700,0.0000,0.0000,-0.0000,1096.0000,1027.0000,1500.0000,2000.0000
287521.4780,2.0000,2000.0000,1431.0000,2000.0000,-102.0000,-68.0000,7.0000,570.0000,-863.0000,6906.0000,-0.1358,-0.0249,0.1411,-0.9803,162.2600,-35.6100,-59.7900,-21.1800,1.3100,-0.8200,0.0000,0.0000,-0.0000,1096.0000,1027.0000,1500.0000,2000.0000
287538.3610,2.0000,2000.0000,1000.0000,1464.0000,-129.0000,-85.0000,19.0000,574.0000,-779.0000,7407.0000,-0.1331,-0.0335,0.1595,-0.9776,161.8400,-35.6000,-59.8000,-21.0800,1.3100,-1.2500,0.0000,0.0000,-0.0000,1973.0000,1064.0000,1500.0000,2000.0000
287554.9560,2.0000,2000.0000,1000.0000,1464.0000,-146.0000,-95.0000,23.0000,596.0000,-700.0000,8069.0000,-0.1292,-0.0432,0.1808,-0.9740,161.8400,-35.6000,-59.8000,-21.0800,1.3100,-1.2500,0.0000,0.0000,-0.0000,1973.0000,1064.0000,1500.0000,2000.0000
287571.6850,2.0000,2000.0000,1000.0000,1464.0000,-144.0000,-106.0000,26.0000,636.0000,-660.0000,8542.0000,-0.1245,-0.0536,0.2038,-0.9696,161.4000,-35.5900,-59.8200,-21.0200,1.4000,-1.7600,0.0000,0.0000,-0.0000,1973.0000,1064.0000,1500.0000,2000.0000
287588.6130,2.0000,2000.0000,1000.0000,1464.0000,-116.0000,-121.0000,20.0000,674.0000,-624.0000,8654.0000,-0.1193,-0.0666,0.2250,-0.9647,160.9600,-35.5800,-59.8500,-20.9500,1.5500,-2.3100,0.0000,0.0000,-0.0000,1973.0000,1064.0000,1500.0000,2000.0000
287605.3610,2.0000,2000.0000,1000.0000,1464.0000,-43.0000,-134.0000,5.0000,773.0000,-644.0000,9111.0000,-0.1149,-0.0827,0.2391,-0.9606,160.5400,-35.5600,-59.8800,-20.8400,1.7400,-2.8500,0.0000,0.0000,-0.0000,1973.0000,1064.0000,1500.0000,2000.0000
287622.0270,2.0000,2000.0000,1000.0000,1464.0000,40.0000,-136.0000,-14.0000,915.0000,-556.0000,9647.0000,-0.1117,-0.1016,0.2412,-0.9587,160.1400,-35.5400,-59.9300,-20.7100,1.9800,-3.4300,0.0000,0.0000,-0.0000,1973.0000,1064.0000,1500.0000,2000.0000
287639.2080,2.0000,2000.0000,1078.0000,2000.0000,107.0000,-121.0000,-31.0000,992.0000,-615.0000,10239.0000,-0.1098,-0.1220,0.2322,-0.9587,159.7300,-35.5200,-59.9800,-20.5700,2.2200,-4.0600,0.0000,0.0000,-0.0000,1433.0000,1012.0000,1500.0000,2000.0000
287656.3540,2.0000,2000.0000,1078.0000,2000.0000,138.0000,-118.0000,-42.0000,983.0000,-598.0000,9966.0000,-0.1095,-0.1420,0.2151,-0.9600,159.7300,-35.5200,-59.9800,-20.5700,2.2200,-4.0600,0.0000,0.0000,-0.0000,1433.0000,1012.0000,1500.0000,2000.0000
287673.2480,2.0000,2000.0000,1078.0000,2000.0000,104.0000,-129.0000,-43.0000,993.0000,-645.0000,9497.0000,-0.1099,-0.1625,0.1986,-0.9603,159.3000,-35.4900,-60.0500,-20.4000,2.4200,-4.7300,0.0000,0.0000,-0.0000,1433.0000,1012.0000,1500.0000,2000.0000
287690.3570,2.0000,2000.0000,1078.0000,2000.0000,57.0000,-142.0000,-39.0000,933.0000,-783.0000,9403.0000,-0.1106,-0.1842,0.1882,-0.9583,158.8900,-35.4600,-60.1300,-20.2000,2.5500,-5.3600,0.0000,0.0000,-0.0000,1433.0000,1012.0000,1500.0000,2000.0000
287707.3230,2.0000,2000.0000,1078.0000,2000.0000,22.0000,-155.0000,-31.0000,960.0000,-917.0000,9328.0000,-0.1112,-0.2068,0.1843,-0.9544,158.5000,-35.4300,-60.2200,-19.9500,2.6300,-5.9700,0.0000,0.0000,-0.0000,1433.0000,1012.0000,1500.0000,2000.0000
287724.1610,2.0000,2000.0000,1000.0000,1506.0000,0.0000,-163.0000,-21.0000,1073.0000,-1065.0000,10412.0000,-0.1110,-0.2299,0.1850,-0.9490,158.1100,-35.4000,-60.3300,-19.6500,2.7000,-6.5900,0.0000,0.0000,-0.0000,1947.0000,1049.0000,1500.0000,2000.0000
287741.0110,2.0000,2000.0000,1000.0000,1505.0000,-5.0000,-160.0000,-19.0000,1216.0000,-1121.0000,10898.0000,-0.1103,-0.2527,0.1879,-0.9427,157.7300,-35.3700,-60.4400,-19.2900,2.7600,-7.2600,0.0000,0.0000,-0.0000,1947.0000,1049.0000,1500.0000,2000.0000
287757.9740,2.0000,2000.0000,1000.0000,1505.0000,16.0000,-152.0000,-17.0000,1358.0000,-964.0000,11238.0000,-0.1091,-0.2750,0.1892,-0.9363,157.7300,-35.3700,-60.4400,-19.2900,2.7600,-7.2600,0.0000,0.0000,-0.0000,1947.0000,1049.0000,1500.0000,2000.0000
287774.9280,2.0000,2000.0000,1000.0000,1505.0000,38.0000,-139.0000,-20.0000,1511.0000,-1095.0000,11622.0000,-0.1076,-0.2960,0.1875,-0.9304,157.3400,-35.3500,-60.5700,-18.8900,2.8200,-7.9700,0.0000,0.0000,-0.0000,1947.0000,1049.0000,1500.0000,2000.0000
287792.0310,2.0000,2000.0000,1000.0000,1505.0000,65.0000,-123.0000,-20.0000,1618.0000,-1176.0000,11896.0000,-0.1053,-0.3154,0.1815,-0.9255,156.9600,-35.3200,-60.7200,-18.4500,2.9000,-8.6900,0.0000,0.0000,-0.0000,1947.0000,1049.0000,1500.0000,2000.0000
287808.9810,2.0000,2000.0000,1000.0000,1505.0000,81.0000,-103.0000,-22.0000,1675.0000,-1251.0000,12367.0000,-0.1030,-0.3321,0.1727,-0.9216,156.6000,-35.2900,-60.8700,-17.9600,2.9700,-9.4200,0.0000,0.0000,-0.0000,1947.0000,1049.0000,1500.0000,2000.0000
287826.0110,2.0000,2000.0000,1168.0000,2000.0000,95.0000,-61.0000,-25.0000,1545.0000,-1167.0000,12153.0000,-0.1008,-0.3449,0.1611,-0.9192,156.2600,-35.2600,-61.0500,-17.4100,3.0300,-10.1900,0.0000,0.0000,-0.0000,1348.0000,1017.0000,1500.0000,2000.0000
287842.7890,2.0000,2000.0000,1168.0000,2000.0000,99.0000,-30.0000,-26.0000,1378.0000,-1210.0000,11281.0000,-0.0994,-0.3525,0.1475,-0.9188,155.9200,-35.2300,-61.2300,-16.8900,3.0400,-10.9000,0.0000,0.0000,-0.0000,1348.0000,1017.0000,1500.0000,2000.0000
287859.3620,2.0000,2000.0000,1168.0000,2000.0000,78.0000,-7.0000,-23.0000,1171.0000,-1009.0000,9484.0000,-0.0986,-0.3562,0.1349,-0.9193,155.9200,-35.2300,-61.2300,-16.8900,3.0400,-10.9000,0.0000,0.0000,-0.0000,1348.0000,1017.0000,1500.0000,2000.0000
287876.0220,2.0000,2000.0000,1168.0000,2000.0000,33.0000,-12.0000,-18.0000,1023.0000,-902.0000,8016.0000,-0.0991,-0.3588,0.1266,-0.9195,155.5700,-35.2100,-61.4300,-16.4800,2.9300,-11.4900,0.0000,0.0000,-0.0000,1348.0000,1017.0000,1500.0000,2000.0000
287892.8370,2.0000,2000.0000,1168.0000,2000.0000,-13.0000,-17.0000,-10.0000,954.0000,-950.0000,7281.0000,-0.1011,-0.3610,0.1255,-0.9185,155.2300,-35.1900,-61.6400,-16.2000,2.7500,-11.9400,0.0000,0.0000,-0.0000,1348.0000,1017.0000,1500.0000,2000.0000
287909.5080,2.0000,2000.0000,1168.0000,2000.0000,-35.0000,-30.0000,-2.0000,783.0000,-843.0000,6211.0000,-0.1037,-0.3637,0.1294,-0.9167,154.9100,-35.1800,-61.8600,-15.9800,2.5400,-12.3000,0.0000,0.0000,-0.0000,1348.0000,1017.0000,1500.0000,2000.0000
287926.5580,2.0000,2000.0000,1000.0000,1464.0000,-48.0000,-49.0000,5.0000,614.0000,-546.0000,4971.0000,-0.1059,-0.3678,0.1359,-0.9138,154.6000,-35.1800,-62.0700,-15.8500,2.3100,-12.5500,0.0000,0.0000,-0.0000,1974.0000,1064.0000,1500.0000,2000.0000
287943.0500,2.0000,2000.0000,1000.0000,1463.0000,-57.0000,-83.0000,9.0000,629.0000,-557.0000,4654.0000,-0.1074,-0.3753,0.1445,-0.9093,154.2800,-35.1800,-62.3000,-15.7300,2.1100,-12.7000,0.0000,0.0000,-0.0000,1974.0000,1064.0000,1500.0000,2000.0000
287959.6530,2.0000,2000.0000,1000.0000,1463.0000,-41.0000,-110.0000,3.0000,568.0000,-371.0000,4618.0000,-0.1081,-0.3870,0.1538,-0.9027,154.2800,-35.1800,-62.3000,-15.7300,2.1100,-12.7000,0.0000,0.0000,-0.0000,1974.0000,1064.0000,1500.0000,2000.0000
287976.7710,2.0000,2000.0000,1000.0000,1463.0000,1.0000,-137.0000,-9.0000,618.0000,-261.0000,5250.0000,-0.1079,-0.4032,0.1588,-0.8948,153.9500,-35.2000,-62.5300,-15.5700,1.9500,-12.8200,0.0000,0.0000,-0.0000,1974.0000,1064.0000,1500.0000,2000.0000
287993.4320,2.0000,2000.0000,1000.0000,1463.0000,50.0000,-144.0000,-22.0000,855.0000,-288.0000,6528.0000,-0.1061,-0.4220,0.1570,-0.8866,153.6300,-35.2100,-62.7500,-15.3800,1.8400,-12.9500,0.0000,0.0000,-0.0000,1974.0000,1064.0000,1500.0000,2000.0000
288009.9740,2.0000,2000.0000,1000.0000,1463.0000,68.0000,-136.0000,-29.0000,1086.0000,-334.0000,7685.0000,-0.1035,-0.4412,0.1503,-0.8786,153.3200,-35.2300,-62.9900,-15.0900,1.7800,-13.1700,0.0000,0.0000,-0.0000,1974.0000,1064.0000,1500.0000,2000.0000
288027.0040,2.0000,2000.0000,1095.0000,2000.0000,75.0000,-122.0000,-36.0000,1323.0000,-610.0000,8634.0000,-0.1013,-0.4596,0.1414,-0.8709,153.0400,-35.2400,-63.2200,-14.7100,1.7500,-13.4500,0.0000,0.0000,-0.0000,1420.0000,1016.0000,1500.0000,2000.0000
288043.8260,2.0000,2000.0000,1095.0000,2000.0000,82.0000,-105.0000,-42.0000,1306.0000,-543.0000,8448.0000,-0.0993,-0.4759,0.1306,-0.8641,152.7400,-35.2600,-63.4600,-14.1800,1.7300,-13.7900,0.0000,0.0000,-0.0000,1420.0000,1016.0000,1500.0000,2000.0000
288060.8130,2.0000,2000.0000,1095.0000,2000.0000,68.0000,-105.0000,-47.0000,1237.0000,-508.0000,7571.0000,-0.0984,-0.4909,0.1197,-0.8573,152.7400,-35.2600,-63.4600,-14.1800,1.7300,-13.7900,0.0000,0.0000,-0.0000,1420.0000,1016.0000,1500.0000,2000.0000
288077.3400,2.0000,2000.0000,1095.0000,2000.0000,23.0000,-117.0000,-45.0000,1170.0000,-474.0000,6648.0000,-0.0997,-0.5058,0.1126,-0.8494,152.4500,-35.2800,-63.7100,-13.6400,1.7000,-14.0700,0.0000,0.0000,-0.0000,1420.0000,1016.0000,1500.0000,2000.0000
288094.0740,2.0000,2000.0000,1095.0000,2000.0000,-18.0000,-135.0000,-40.0000,1107.0000,-615.0000,6299.0000,-0.1037,-0.5219,0.1117,-0.8393,152.1800,-35.3000,-63.9700,-13.1900,1.6200,-14.2700,0.0000,0.0000,-0.0000,1420.0000,1016.0000,1500.0000,2000.0000
288110.5630,2.0000,2000.0000,1095.0000,2000.0000,-43.0000,-151.0000,-34.0000,1130.0000,-649.0000,6568.0000,-0.1090,-0.5391,0.1155,-0.8271,151.9200,-35.3200,-64.2200,-12.7700,1.5400,-14.4000,0.0000,0.0000,-0.0000,1420.0000,1016.0000,1500.0000,2000.0000
288127.4450,2.0000,2000.0000,1000.0000,1466.0000,-63.0000,-165.0000,-29.0000,1384.0000,-770.0000,7671.0000,-0.1152,-0.5579,0.1226,-0.8127,151.6800,-35.3400,-64.4800,-12.3200,1.4800,-14.5400,0.0000,0.0000,-0.0000,1973.0000,1063.0000,1500.0000,2000.0000
288144.1280,2.0000,2000.0000,1000.0000,1465.0000,-79.0000,-164.0000,-24.0000,1590.0000,-919.0000,8878.0000,-0.1220,-0.5761,0.1324,-0.7973,151.4400,-35.3600,-64.7500,-11.6600,1.4300,-14.7100,0.0000,0.0000,-0.0000,1973.0000,1063.0000,1500.0000,2000.0000
288161.1360,2.0000,2000.0000,1000.0000,1465.0000,-64.0000,-147.0000,-22.0000,1697.0000,-1013.0000,9727.0000,-0.1286,-0.5934,0.1425,-0.7817,151.4400,-35.3600,-64.7500,-11.6600,1.4300,-14.7100,0.0000,0.0000,-0.0000,1973.0000,1063.0000,1500.0000,2000.0000
288177.9580,2.0000,2000.0000,1000.0000,1465.0000,-35.0000,-128.0000,-24.0000,1728.0000,-1170.0000,10004.0000,-0.1335,-0.6084,0.1497,-0.7679,151.2100,-35.3900,-65.0200,-10.8200,1.4000,-14.8900,0.0000,0.0000,-0.0000,1973.0000,1063.0000,1500.0000,2000.0000
288194.7360,2.0000,2000.0000,1000.0000,1465.0000,2.0000,-99.0000,-23.0000,1585.0000,-1092.0000,10211.0000,-0.1362,-0.6213,0.1525,-0.7564,151.0000,-35.4100,-65.2900,-9.9600,1.4000,-15.0500,0.0000,0.0000,-0.0000,1973.0000,1063.0000,1500.0000,2000.0000
288211.5260,2.0000,2000.0000,1000.0000,1465.0000,30.0000,-45.0000,-21.0000,1450.0000,-930.0000,9784.0000,-0.1363,-0.6299,0.1508,-0.7496,150.8200,-35.4400,-65.5700,-9.1200,1.4300,-15.1700,0.0000,0.0000,-0.0000,1973.0000,1063.0000,1500.0000,2000.0000
288228.3230,2.0000,2000.0000,1037.0000,2000.0000,49.0000,-14.0000,-21.0000,1303.0000,-787.0000,8295.0000,-0.1353,-0.6340,0.1458,-0.7473,150.6600,-35.4600,-65.8400,-8.3900,1.4400,-15.2500,0.0000,0.0000,-0.0000,1478.0000,1017.0000,1500.0000,2000.0000
288245.1780,2.0000,2000.0000,1038.0000,2000.0000,64.0000,10.0000,-23.0000,1284.0000,-668.0000,7039.0000,-0.1331,-0.6355,0.1380,-0.7479,150.6600,-35.4600,-65.8400,-8.3900,1.4400,-15.2500,0.0000,0.0000,-0.0000,1478.0000,1017.0000,1500.0000,2000.0000
288262.0620,2.0000,2000.0000,1038.0000,2000.0000,59.0000,21.0000,-23.0000,1042.0000,-395.0000,4938.0000,-0.1311,-0.6350,0.1292,-0.7503,150.5000,-35.4800,-66.1200,-7.7600,1.3500,-15.3000,0.0000,0.0000,-0.0000,1478.0000,1017.0000,1500.0000,2000.0000
288278.9450,2.0000,2000.0000,1038.0000,2000.0000,38.0000,10.0000,-23.0000,1066.0000,-595.0000,3012.0000,-0.1301,-0.6340,0.1221,-0.7525,150.3500,-35.5200,-66.4100,-7.2900,1.1700,-15.3100,0.0000,0.0000,-0.0000,1478.0000,1017.0000,1500.0000,2000.0000
288295.9970,2.0000,2000.0000,1038.0000,2000.0000,4.0000,-13.0000,-21.0000,958.0000,-367.0000,1957.0000,-0.1307,-0.6343,0.1196,-0.7525,150.2200,-35.5600,-66.6900,-7.0400,0.9000,-15.2800,0.0000,0.0000,-0.0000,1478.0000,1017.0000,1500.0000,2000.0000
288312.8120,2.0000,2000.0000,1038.0000,2000.0000,-8.0000,-49.0000,-20.0000,887.0000,-360.0000,1774.0000,-0.1337,-0.6377,0.1192,-0.7492,150.0900,-35.6100,-66.9600,-6.9200,0.5800,-15.2100,0.0000,0.0000,-0.0000,1478.0000,1017.0000,1500.0000,2000.0000
288329.8430,2.0000,2000.0000,1000.0000,1473.0000,-16.0000,-81.0000,-19.0000,904.0000,-430.0000,1812.0000,-0.1360,-0.6449,0.1212,-0.7423,149.9700,-35.6700,-67.2400,-6.8400,0.2700,-15.1100,0.0000,0.0000,-0.0000,1969.0000,1060.0000,1500.0000,2000.0000
288346.5930,2.0000,2000.0000,1000.0000,1472.0000,-18.0000,-109.0000,-20.0000,943.0000,-423.0000,2246.0000,-0.1380,-0.6547,0.1245,-0.7327,149.8500,-35.7400,-67.5200,-6.6700,-0.0600,-15.0200,0.0000,0.0000,-0.0000,1969.0000,1060.0000,1500.0000,2000.0000
288363.4920,2.0000,2000.0000,1000.0000,1472.0000,-15.0000,-144.0000,-22.0000,1102.0000,-466.0000,2891.0000,-0.1398,-0.6679,0.1279,-0.7197,149.8500,-35.7400,-67.5200,-6.6700,-0.0600,-15.0200,0.0000,0.0000,-0.0000,1969.0000,1060.0000,1500.0000,2000.0000
288380.3190,2.0000,2000.0000,1000.0000,1472.0000,-1.0000,-164.0000,-24.0000,1269.0000,-513.0000,3911.0000,-0.1407,-0.6844,0.1304,-0.7034,149.7200,-35.8200,-67.8000,-6.4200,-0.3800,-14.9400,0.0000,0.0000,-0.0000,1969.0000,1060.0000,1500.0000,2000.0000
288397.0800,2.0000,2000.0000,1000.0000,1472.0000,23.0000,-171.0000,-28.0000,1477.0000,-701.0000,5178.0000,-0.1396,-0.7022,0.1307,-0.6859,149.6100,-35.9100,-68.0800,-6.0800,-0.6200,-14.8600,0.0000,0.0000,-0.0000,1969.0000,1060.0000,1500.0000,2000.0000
288413.7660,2.0000,2000.0000,1000.0000,1472.0000,53.0000,-166.0000,-33.0000,1478.0000,-687.0000,5833.0000,-0.1360,-0.7202,0.1277,-0.6682,149.5000,-35.9900,-68.3600,-5.6300,-0.8000,-14.7800,0.0000,0.0000,-0.0000,1969.0000,1060.0000,1500.0000,2000.0000
288430.9700,2.0000,2000.0000,1422.0000,2000.0000,79.0000,-159.0000,-37.0000,1570.0000,-517.0000,6240.0000,-0.1294,-0.7381,0.1208,-0.6510,149.4100,-36.0600,-68.6300,-5.1200,-0.9200,-14.6700,0.0000,0.0000,-0.0000,1105.0000,1027.0000,1500.0000,2000.0000
288448.0450,2.0000,2000.0000,1422.0000,2000.0000,91.0000,-147.0000,-38.0000,1727.0000,-516.0000,6737.0000,-0.1206,-0.7551,0.1111,-0.6348,149.3200,-36.1500,-68.9100,-4.5500,-1.1000,-14.5300,0.0000,0.0000,-0.0000,1105.0000,1027.0000,1500.0000,2000.0000
288465.1720,2.0000,2000.0000,1422.0000,2000.0000,68.0000,-139.0000,-34.0000,1721.0000,-494.0000,6573.0000,-0.1123,-0.7703,0.1015,-0.6194,149.3200,-36.1500,-68.9100,-4.5500,-1.1000,-14.5300,0.0000,0.0000,-0.0000,1105.0000,1027.0000,1500.0000,2000.0000
288481.8800,2.0000,2000.0000,1422.0000,2000.0000,20.0000,-138.0000,-26.0000,1688.0000,-614.0000,6226.0000,-0.1080,-0.7839,0.0964,-0.6038,149.2400,-36.2500,-69.1800,-3.9600,-1.3100,-14.3600,0.0000,0.0000,-0.0000,1105.0000,1027.0000,1500.0000,2000.0000
288498.9160,2.0000,2000.0000,1422.0000,2000.0000,-23.0000,-136.0000,-16.0000,1595.0000,-528.0000,5840.0000,-0.1084,-0.7961,0.0965,-0.5875,149.1800,-36.3500,-69.4600,-3.4200,-1.5300,-14.1700,0.0000,0.0000,-0.0000,1105.0000,1027.0000,1500.0000,2000.0000
288515.6430,2.0000,2000.0000,1280.0000,2000.0000,-49.0000,-135.0000,-9.0000,1599.0000,-549.0000,5772.0000,-0.1121,-0.8073,0.1006,-0.5706,149.1200,-36.4400,-69.7200,-2.9600,-1.7400,-13.9600,0.0000,0.0000,-0.0000,1267.0000,1041.0000,1500.0000,2000.0000
288532.5210,2.0000,2000.0000,1273.0000,2000.0000,-64.0000,-136.0000,-2.0000,1730.0000,-748.0000,5930.0000,-0.1173,-0.8177,0.1067,-0.5534,149.0800,-36.5400,-69.9800,-2.5300,-1.9200,-13.7200,0.0000,0.0000,-0.0000,1267.0000,1041.0000,1500.0000,2000.0000
288549.3270,2.0000,2000.0000,1273.0000,2000.0000,-70.0000,-137.0000,2.0000,1726.0000,-689.0000,5733.0000,-0.1233,-0.8273,0.1145,-0.5360,149.0400,-36.6500,-70.2400,-2.0000,-2.0800,-13.4600,0.0000,0.0000,-0.0000,1267.0000,1041.0000,1500.0000,2000.0000
288566.2850,2.0000,2000.0000,1273.0000,2000.0000,-68.0000,-147.0000,4.0000,1640.0000,-636.0000,5397.0000,-0.1291,-0.8370,0.1228,-0.5175,149.0400,-36.6500,-70.2400,-2.0000,-2.0800,-13.4600,0.0000,0.0000,-0.0000,1267.0000,1041.0000,1500.0000,2000.0000
288583.0500,2.0000,2000.0000,1273.0000,2000.0000,-70.0000,-147.0000,6.0000,1543.0000,-398.0000,5141.0000,-0.1345,-0.8464,0.1312,-0.4983,149.0200,-36.7600,-70.5000,-1.5100,-2.2200,-13.1800,0.0000,0.0000,-0.0000,1267.0000,1041.0000,1500.0000,2000.0000
288599.5210,2.0000,2000.0000,1273.0000,2000.0000,-72.0000,-152.0000,5.0000,1668.0000,-504.0000,5557.0000,-0.1399,-0.8553,0.1398,-0.4788,149.0000,-36.8800,-70.7500,-1.0800,-2.3300,-12.8900,0.0000,0.0000,-0.0000,1267.0000,1041.0000,1500.0000,2000.0000
288616.3080,2.0000,2000.0000,1000.0000,1484.0000,-70.0000,-149.0000,6.0000,1680.0000,-352.0000,5782.0000,-0.1453,-0.8642,0.1486,-0.4583,149.0000,-36.9900,-70.9900,-0.6600,-2.4200,-12.5700,0.0000,0.0000,-0.0000,1963.0000,1058.0000,1500.0000,2000.0000
288632.9660,2.0000,2000.0000,1000.0000,1480.0000,-73.0000,-146.0000,6.0000,1729.0000,-276.0000,6238.0000,-0.1506,-0.8721,0.1571,-0.4384,149.0000,-37.1000,-71.2200,-0.2500,-2.4500,-12.2100,0.0000,0.0000,-0.0000,1963.0000,1058.0000,1500.0000,2000.0000
288649.7130,2.0000,2000.0000,1000.0000,1480.0000,-66.0000,-141.0000,5.0000,1751.0000,-438.0000,6427.0000,-0.1558,-0.8794,0.1655,-0.4183,149.0000,-37.1000,-71.2200,-0.2500,-2.4500,-12.2100,0.0000,0.0000,-0.0000,1963.0000,1058.0000,1500.0000,2000.0000
288666.3940,2.0000,2000.0000,1000.0000,1480.0000,-52.0000,-139.0000,1.0000,1686.0000,-417.0000,6289.0000,-0.1600,-0.8862,0.1728,-0.3990,149.0100,-37.2200,-71.4600,0.2800,-2.4400,-11.8000,0.0000,0.0000,-0.0000,1963.0000,1058.0000,1500.0000,2000.0000
288683.0760,2.0000,2000.0000,1000.0000,1480.0000,-25.0000,-126.0000,-5.0000,1665.0000,-353.0000,6087.0000,-0.1618,-0.8928,0.1779,-0.3810,149.0400,-37.3300,-71.6800,0.7900,-2.4200,-11.3700,0.0000,0.0000,-0.0000,1963.0000,1058.0000,1500.0000,2000.0000
288699.9370,2.0000,2000.0000,1000.0000,1480.0000,4.0000,-112.0000,-11.0000,1692.0000,-380.0000,5955.0000,-0.1606,-0.8992,0.1803,-0.3649,149.0700,-37.4500,-71.9000,1.2600,-2.4000,-10.9300,0.0000,0.0000,-0.0000,1963.0000,1058.0000,1500.0000,2000.0000
288716.5390,2.0000,2000.0000,1000.0000,1480.0000,27.0000,-96.0000,-18.0000,1696.0000,-329.0000,5671.0000,-0.1566,-0.9054,0.1800,-0.3512,149.1100,-37.5600,-72.1100,1.6600,-2.3900,-10.4800,0.0000,0.0000,-0.0000,1963.0000,1058.0000,1500.0000,2000.0000
288733.5030,2.0000,2000.0000,1433.0000,2000.0000,43.0000,-83.0000,-24.0000,1655.0000,-279.0000,5274.0000,-0.1506,-0.9113,0.1774,-0.3397,149.1600,-37.6700,-72.3100,2.0100,-2.4000,-10.0500,0.0000,0.0000,-0.0000,1094.0000,1027.0000,1500.0000,2000.0000
288750.6610,2.0000,2000.0000,1433.0000,2000.0000,47.0000,-69.0000,-28.0000,1588.0000,-245.0000,4718.0000,-0.1435,-0.9168,0.1727,-0.3301,149.1600,-37.6700,-72.3100,2.0100,-2.4000,-10.0500,0.0000,0.0000,-0.0000,1094.0000,1027.0000,1500.0000,2000.0000
288767.5760,2.0000,2000.0000,1433.0000,2000.0000,18.0000,-69.0000,-30.0000,1649.0000,-239.0000,4461.0000,-0.1385,-0.9216,0.1682,-0.3212,149.2300,-37.8000,-72.5100,2.4400,-2.5200,-9.6300,0.0000,0.0000,-0.0000,1094.0000,1027.0000,1500.0000,2000.0000
288784.3100,2.0000,2000.0000,1433.0000,2000.0000,-21.0000,-74.0000,-30.0000,1595.0000,-302.0000,4100.0000,-0.1383,-0.9257,0.1654,-0.3108,149.3000,-37.9300,-72.7000,2.8600,-2.6800,-9.2300,0.0000,0.0000,-0.0000,1094.0000,1027.0000,1500.0000,2000.0000
288801.1960,2.0000,2000.0000,1433.0000,2000.0000,-59.0000,-83.0000,-30.0000,1471.0000,-205.0000,3730.0000,-0.1432,-0.9292,0.1643,-0.2983,149.3900,-38.0700,-72.8800,3.2200,-2.8500,-8.8700,0.0000,0.0000,-0.0000,1094.0000,1027.0000,1500.0000,2000.0000
288818.0480,2.0000,2000.0000,1433.0000,2000.0000,-87.0000,-90.0000,-30.0000,1466.0000,-278.0000,3613.0000,-0.1525,-0.9322,0.1648,-0.2840,149.4700,-38.2000,-73.0600,3.5200,-3.0100,-8.5200,0.0000,0.0000,-0.0000,1094.0000,1027.0000,1500.0000,2000.0000
288835.1920,2.0000,2000.0000,1000.0000,1492.0000,-102.0000,-102.0000,-31.0000,1365.0000,-100.0000,3727.0000,-0.1646,-0.9347,0.1662,-0.2677,149.5600,-38.3300,-73.2300,3.7700,-3.1400,-8.1600,0.0000,0.0000,-0.0000,1920.0000,1089.0000,1500.0000,2000.0000
288852.2940,2.0000,2000.0000,1000.0000,1492.0000,-101.0000,-108.0000,-31.0000,1449.0000,-208.0000,3828.0000,-0.1775,-0.9370,0.1676,-0.2500,149.5600,-38.3300,-73.2300,3.7700,-3.1400,-8.1600,0.0000,0.0000,-0.0000,1920.0000,1089.0000,1500.0000,2000.0000
288869.3780,2.0000,2000.0000,1000.0000,1492.0000,-76.0000,-118.0000,-37.0000,1494.0000,-63.0000,3800.0000,-0.1883,-0.9396,0.1680,-0.2312,149.6600,-38.4800,-73.4000,4.0800,-3.3600,-7.7700,0.0000,0.0000,-0.0000,1920.0000,1089.0000,1500.0000,2000.0000
288886.3970,2.0000,2000.0000,1000.0000,1492.0000,-35.0000,-129.0000,-49.0000,1429.0000,-217.0000,3842.0000,-0.1942,-0.9433,0.1662,-0.2116,149.7700,-38.6400,-73.5600,4.3600,-3.5500,-7.3700,0.0000,0.0000,-0.0000,1920.0000,1089.0000,1500.0000,2000.0000
288903.0890,2.0000,2000.0000,1000.0000,1492.0000,7.0000,-132.0000,-60.0000,1490.0000,-453.0000,4269.0000,-0.1942,-0.9483,0.1616,-0.1921,149.8700,-38.7900,-73.7200,4.6200,-3.7200,-6.9600,0.0000,0.0000,-0.0000,1920.0000,1089.0000,1500.0000,2000.0000
288919.6980,2.0000,2000.0000,1409.0000,2000.0000,30.0000,-126.0000,-68.0000,1543.0000,-410.0000,4733.0000,-0.1900,-0.9539,0.1546,-0.1732,149.9800,-38.9400,-73.8600,4.8600,-3.8900,-6.4900,0.0000,0.0000,-0.0000,1048.0000,1030.0000,1500.0000,2000.0000
288936.5920,2.0000,2000.0000,1482.0000,2000.0000,52.0000,-126.0000,-74.0000,1642.0000,-480.0000,5166.0000,-0.1830,-0.9599,0.1459,-0.1546,150.0900,-39.0900,-73.9900,5.1100,-4.0100,-5.9500,0.0000,0.0000,-0.0000,1048.0000,1030.0000,1500.0000,2000.0000
288953.2360,2.0000,2000.0000,1482.0000,2000.0000,60.0000,-123.0000,-76.0000,1539.0000,-505.0000,4972.0000,-0.1737,-0.9657,0.1361,-0.1368,150.0900,-39.0900,-73.9900,5.1100,-4.0100,-5.9500,0.0000,0.0000,-0.0000,1048.0000,1030.0000,1500.0000,2000.0000
288970.2790,2.0000,2000.0000,1482.0000,2000.0000,31.0000,-128.0000,-73.0000,1540.0000,-356.0000,4813.0000,-0.1659,-0.9709,0.1264,-0.1180,150.2200,-39.2600,-74.1200,5.4000,-4.2100,-5.3700,0.0000,0.0000,-0.0000,1048.0000,1030.0000,1500.0000,2000.0000
288987.3180,2.0000,2000.0000,1482.0000,2000.0000,-10.0000,-133.0000,-63.0000,1543.0000,-382.0000,4829.0000,-0.1631,-0.9746,0.1184,-0.0979,150.3500,-39.4200,-74.2300,5.6400,-4.4000,-4.8000,0.0000,0.0000,-0.0000,1048.0000,1030.0000,1500.0000,2000.0000
289004.3340,2.0000,2000.0000,1482.0000,2000.0000,-43.0000,-133.0000,-52.0000,1618.0000,-767.0000,5038.0000,-0.1656,-0.9767,0.1126,-0.0768,150.4800,-39.5900,-74.3300,5.8600,-4.5800,-4.2100,0.0000,0.0000,-0.0000,1048.0000,1030.0000,1500.0000,2000.0000
289020.7990,2.0000,2000.0000,1431.0000,2000.0000,-70.0000,-129.0000,-41.0000,1611.0000,-893.0000,5199.0000,-0.1720,-0.9774,0.1088,-0.0565,150.6100,-39.7500,-74.4100,6.0600,-4.7700,-3.5900,0.0000,0.0000,-0.0000,1108.0000,1039.0000,1500.0000,2000.0000
289037.5750,2.0000,2000.0000,1431.0000,2000.0000,-89.0000,-128.0000,-31.0000,1544.0000,-874.0000,5233.0000,-0.1817,-0.9769,0.1062,-0.0362,150.7400,-39.9200,-74.4800,6.2200,-4.9500,-2.9300,0.0000,0.0000,-0.0000,1108.0000,1039.0000,1500.0000,2000.0000
289054.2840,2.0000,2000.0000,1431.0000,2000.0000,-102.0000,-122.0000,-20.0000,1602.0000,-859.0000,5307.0000,-0.1935,-0.9753,0.1052,-0.0165,150.7400,-39.9200,-74.4800,6.2200,-4.9500,-2.9300,0.0000,0.0000,-0.0000,1108.0000,1039.0000,1500.0000,2000.0000
289071.2330,2.0000,2000.0000,1431.0000,2000.0000,-110.0000,-122.0000,-13.0000,1566.0000,-837.0000,5195.0000,-0.2070,-0.9726,0.1053,0.0028,150.9000,-40.1000,-74.5500,6.5400,-5.0500,-2.2600,0.0000,0.0000,-0.0000,1108.0000,1039.0000,1500.0000,2000.0000
289088.0340,2.0000,2000.0000,1431.0000,2000.0000,-117.0000,-121.0000,-6.0000,1446.0000,-597.0000,4852.0000,-0.2214,-0.9691,0.1062,0.0218,151.0500,-40.2800,-74.5900,6.8200,-5.1300,-1.6100,0.0000,0.0000,-0.0000,1108.0000,1039.0000,1500.0000,2000.0000
289104.8170,2.0000,2000.0000,1431.0000,2000.0000,-119.0000,-123.0000,-1.0000,1410.0000,-615.0000,4927.0000,-0.2363,-0.9648,0.1079,0.0407,151.2200,-40.4600,-74.6300,7.0600,-5.1900,-0.9800,0.0000,0.0000,-0.0000,1108.0000,1039.0000,1500.0000,2000.0000
289121.6850,2.0000,2000.0000,1431.0000,2000.0000,-122.0000,-122.0000,5.0000,1481.0000,-568.0000,5158.0000,-0.2516,-0.9597,0.1103,0.0596,151.3800,-40.6300,-74.6500,7.2500,-5.2200,-0.3600,0.0000,0.0000,-0.0000,1108.0000,1039.0000,1500.0000,2000.0000
289138.6520,2.0000,2000.0000,1560.0000,1792.0000,-124.0000,-127.0000,10.0000,1490.0000,-633.0000,5210.0000,-0.2672,-0.9536,0.1137,0.0788,151.5400,-40.8000,-74.6600,7.4000,-5.2200,0.2700,0.0000,0.0000,-0.0000,1323.0000,1383.0000,1500.0000,2000.0000
289155.4310,2.0000,2000.0000,1560.0000,1792.0000,-127.0000,-127.0000,17.0000,1487.0000,-749.0000,5283.0000,-0.2828,-0.9469,0.1180,0.0978,151.5400,-40.8000,-74.6600,7.4000,-5.2200,0.2700,0.0000,0.0000,-0.0000,1323.0000,1383.0000,1500.0000,2000.0000
289172.4380,2.0000,2000.0000,1560.0000,1792.0000,-133.0000,-122.0000,19.0000,1489.0000,-701.0000,5532.0000,-0.2992,-0.9391,0.1227,0.1165,151.7200,-40.9800,-74.6500,7.6300,-5.1300,0.9100,0.0000,0.0000,-0.0000,1323.0000,1383.0000,1500.0000,2000.0000
289189.3040,2.0000,2000.0000,1560.0000,1792.0000,-144.0000,-112.0000,22.0000,1486.0000,-594.0000,5900.0000,-0.3168,-0.9304,0.1269,0.1336,151.9100,-41.1500,-74.6400,7.8300,-5.0100,1.5500,0.0000,0.0000,-0.0000,1323.0000,1383.0000,1500.0000,2000.0000
289206.1620,2.0000,2000.0000,1560.0000,1792.0000,-155.0000,-101.0000,22.0000,1460.0000,-453.0000,5690.0000,-0.3358,-0.9208,0.1305,0.1493,152.1000,-41.3200,-74.6100,7.9700,-4.8500,2.2000,0.0000,0.0000,-0.0000,1323.0000,1383.0000,1500.0000,2000.0000
289223.1880,2.0000,2000.0000,1560.0000,1792.0000,-164.0000,-93.0000,21.0000,1428.0000,-296.0000,5572.0000,-0.3566,-0.9101,0.1332,0.1638,152.2800,-41.4800,-74.5700,8.0800,-4.6800,2.8000,0.0000,0.0000,-0.0000,1323.0000,1383.0000,1500.0000,2000.0000
289240.1230,2.0000,2000.0000,1584.0000,2000.0000,-173.0000,-85.0000,18.0000,1357.0000,-182.0000,5208.0000,-0.3782,-0.8984,0.1352,0.1776,152.4600,-41.6300,-74.5200,8.1700,-4.5000,3.3400,0.0000,0.0000,-0.0000,1096.0000,1180.0000,1500.0000,2000.0000
289257.0680,2.0000,2000.0000,1584.0000,2000.0000,-188.0000,-78.0000,15.0000,1304.0000,-188.0000,5024.0000,-0.4011,-0.8855,0.1364,0.1906,152.4600,-41.6300,-74.5200,8.1700,-4.5000,3.3400,0.0000,0.0000,-0.0000,1096.0000,1180.0000,1500.0000,2000.0000
289274.0360,2.0000,2000.0000,1584.0000,2000.0000,-203.0000,-76.0000,11.0000,1238.0000,-175.0000,4732.0000,-0.4255,-0.8712,0.1362,0.2034,152.6900,-41.7700,-74.4700,8.6000,-4.1700,3.8400,0.0000,0.0000,-0.0000,1096.0000,1180.0000,1500.0000,2000.0000
289290.9690,2.0000,2000.0000,1584.0000,2000.0000,-224.0000,-72.0000,9.0000,1136.0000,29.0000,4577.0000,-0.4518,-0.8550,0.1346,0.2160,152.9300,-41.9000,-74.4000,9.0000,-3.8600,4.2800,0.0000,0.0000,-0.0000,1096.0000,1180.0000,1500.0000,2000.0000
289307.7860,2.0000,2000.0000,1584.0000,2000.0000,-235.0000,-71.0000,3.0000,1166.0000,37.0000,5086.0000,-0.4795,-0.8370,0.1317,0.2282,153.1700,-42.0300,-74.3300,9.3400,-3.5500,4.6500,0.0000,0.0000,-0.0000,1096.0000,1180.0000,1500.0000,2000.0000
289324.7820,2.0000,2000.0000,1210.0000,2000.0000,-244.0000,-66.0000,-2.0000,1219.0000,-44.0000,5569.0000,-0.5080,-0.8172,0.1273,0.2405,153.4000,-42.1400,-74.2600,9.6300,-3.1900,5.0300,0.0000,0.0000,-0.0000,1366.0000,1059.0000,1500.0000,2000.0000
289341.6650,2.0000,2000.0000,1192.0000,2000.0000,-250.0000,-59.0000,-8.0000,1268.0000,-142.0000,6013.0000,-0.5364,-0.7960,0.1218,0.2525,153.6300,-42.2400,-74.1800,9.8400,-2.8100,5.3900,0.0000,0.0000,-0.0000,1366.0000,1059.0000,1500.0000,2000.0000
289358.5150,2.0000,2000.0000,1192.0000,2000.0000,-233.0000,-58.0000,-16.0000,1242.0000,-89.0000,5868.0000,-0.5633,-0.7744,0.1152,0.2640,153.6300,-42.2400,-74.1800,9.8400,-2.8100,5.3900,0.0000,0.0000,-0.0000,1366.0000,1059.0000,1500.0000,2000.0000
289375.3510,2.0000,2000.0000,1192.0000,2000.0000,-191.0000,-72.0000,-26.0000,1173.0000,-205.0000,5157.0000,-0.5855,-0.7543,0.1092,0.2761,153.9300,-42.3200,-74.0900,10.2600,-2.2300,5.7300,0.0000,0.0000,-0.0000,1366.0000,1059.0000,1500.0000,2000.0000
289392.3100,2.0000,2000.0000,1192.0000,2000.0000,-149.0000,-86.0000,-38.0000,1062.0000,-124.0000,4658.0000,-0.6019,-0.7368,0.1047,0.2897,154.2200,-42.3900,-74.0000,10.6500,-1.7300,6.0200,0.0000,0.0000,-0.0000,1366.0000,1059.0000,1500.0000,2000.0000
289409.2820,2.0000,2000.0000,1192.0000,2000.0000,-121.0000,-98.0000,-49.0000,1078.0000,-144.0000,4859.0000,-0.6134,-0.7214,0.1016,0.3050,154.5100,-42.4500,-73.9100,11.0100,-1.3100,6.2600,0.0000,0.0000,-0.0000,1366.0000,1059.0000,1500.0000,2000.0000
289426.4330,2.0000,2000.0000,1321.0000,2000.0000,-103.0000,-111.0000,-56.0000,1100.0000,-67.0000,5105.0000,-0.6215,-0.7072,0.0996,0.3222,154.8000,-42.5000,-73.8100,11.3300,-0.9100,6.4800,0.0000,0.0000,-0.0000,1217.0000,1038.0000,1500.0000,2000.0000
289443.4720,2.0000,2000.0000,1321.0000,2000.0000,-92.0000,-122.0000,-60.0000,1158.0000,-308.0000,6014.0000,-0.6273,-0.6932,0.0990,0.3408,155.0900,-42.5300,-73.7100,11.6200,-0.4900,6.6800,0.0000,0.0000,-0.0000,1217.0000,1038.0000,1500.0000,2000.0000
289460.0190,2.0000,2000.0000,1321.0000,2000.0000,-91.0000,-126.0000,-58.0000,1273.0000,-426.0000,7317.0000,-0.6318,-0.6795,0.0994,0.3595,155.0900,-42.5300,-73.7100,11.6200,-0.4900,6.6800,0.0000,0.0000,-0.0000,1217.0000,1038.0000,1500.0000,2000.0000
289476.6110,2.0000,2000.0000,1321.0000,2000.0000,-98.0000,-121.0000,-55.0000,1434.0000,-821.0000,8214.0000,-0.6365,-0.6650,0.0996,0.3777,155.4600,-42.5500,-73.6100,12.0800,0.1400,6.9000,0.0000,0.0000,-0.0000,1217.0000,1038.0000,1500.0000,2000.0000
289493.6310,2.0000,2000.0000,1321.0000,2000.0000,-94.0000,-115.0000,-47.0000,1451.0000,-941.0000,8345.0000,-0.6417,-0.6499,0.0996,0.3949,155.8200,-42.5600,-73.5000,12.4100,0.8400,7.1300,0.0000,0.0000,-0.0000,1217.0000,1038.0000,1500.0000,2000.0000
289510.1770,2.0000,2000.0000,1321.0000,2000.0000,-80.0000,-116.0000,-43.0000,1393.0000,-761.0000,8357.0000,-0.6461,-0.6357,0.1003,0.4104,156.1800,-42.5500,-73.3900,12.6400,1.5000,7.3300,0.0000,0.0000,-0.0000,1217.0000,1038.0000,1500.0000,2000.0000
289527.0610,2.0000,2000.0000,1485.0000,1735.0000,-73.0000,-112.0000,-36.0000,1465.0000,-916.0000,8649.0000,-0.6495,-0.6220,0.1020,0.4252,156.5300,-42.5200,-73.2700,12.8300,2.1000,7.5000,0.0000,0.0000,-0.0000,1389.0000,1374.0000,1500.0000,2000.0000
289544.0760,2.0000,2000.0000,1485.0000,1735.0000,-69.0000,-105.0000,-28.0000,1417.0000,-835.0000,8866.0000,-0.6527,-0.6089,0.1043,0.4385,156.8700,-42.4900,-73.1500,12.9600,2.7000,7.6300,0.0000,0.0000,-0.0000,1389.0000,1374.0000,1500.0000,2000.0000
289561.1270,2.0000,2000.0000,1485.0000,1735.0000,-69.0000,-91.0000,-21.0000,1524.0000,-963.0000,9025.0000,-0.6561,-0.5962,0.1065,0.4501,156.8700,-42.4900,-73.1500,12.9600,2.7000,7.6300,0.0000,0.0000,-0.0000,1389.0000,1374.0000,1500.0000,2000.0000
289577.8460,2.0000,2000.0000,1485.0000,1735.0000,-68.0000,-73.0000,-16.0000,1561.0000,-988.0000,9144.0000,-0.6600,-0.5847,0.1075,0.4593,157.2700,-42.4200,-73.0300,13.1300,3.4500,7.7300,0.0000,0.0000,-0.0000,1389.0000,1374.0000,1500.0000,2000.0000
289594.5370,2.0000,2000.0000,1485.0000,1735.0000,-76.0000,-61.0000,-11.0000,1508.0000,-1022.0000,8417.0000,-0.6647,-0.5736,0.1073,0.4666,157.6600,-42.3500,-72.9000,13.2500,4.1500,7.8000,0.0000,0.0000,-0.0000,1389.0000,1374.0000,1500.0000,2000.0000
289611.4000,2.0000,2000.0000,1485.0000,1735.0000,-86.0000,-55.0000,-4.0000,1324.0000,-851.0000,7767.0000,-0.6705,-0.5619,0.1060,0.4726,158.0400,-42.2600,-72.7700,13.3600,4.7500,7.8600,0.0000,0.0000,-0.0000,1389.0000,1374.0000,1500.0000,2000.0000
289628.3650,2.0000,2000.0000,1816.0000,1914.0000,-95.0000,-48.0000,0.0000,1177.0000,-660.0000,7753.0000,-0.6776,-0.5494,0.1039,0.4777,158.4000,-42.1600,-72.6400,13.4900,5.2500,7.8900,0.0000,0.0000,-0.0000,1134.0000,1450.0000,1500.0000,2000.0000
289645.0590,2.0000,2000.0000,1817.0000,1915.0000,-98.0000,-45.0000,2.0000,1085.0000,-607.0000,7452.0000,-0.6850,-0.5368,0.1014,0.4820,158.7600,-42.0600,-72.5100,13.6000,5.7300,7.8700,0.0000,0.0000,-0.0000,1134.0000,1450.0000,1500.0000,2000.0000
289662.1060,2.0000,2000.0000,1817.0000,1915.0000,-126.0000,-37.0000,5.0000,1088.0000,-731.0000,7292.0000,-0.6937,-0.5225,0.0977,0.4860,158.7600,-42.0600,-72.5100,13.6000,5.7300,7.8700,0.0000,0.0000,-0.0000,1134.0000,1450.0000,1500.0000,2000.0000
289678.9670,2.0000,2000.0000,1817.0000,1915.0000,-177.0000,-17.0000,10.0000,1021.0000,-649.0000,7183.0000,-0.7057,-0.5048,0.0897,0.4889,159.1700,-41.9200,-72.3800,13.7400,6.3300,7.8300,0.0000,0.0000,-0.0000,1134.0000,1450.0000,1500.0000,2000.0000
289695.9400,2.0000,2000.0000,1817.0000,1915.0000,-240.0000,13.0000,15.0000,848.0000,-432.0000,6551.0000,-0.7224,-0.4826,0.0749,0.4895,159.5600,-41.7800,-72.2500,13.8600,6.8700,7.7600,0.0000,0.0000,-0.0000,1134.0000,1450.0000,1500.0000,2000.0000
289712.8460,2.0000,2000.0000,1817.0000,1915.0000,-291.0000,40.0000,19.0000,749.0000,-312.0000,5492.0000,-0.7428,-0.4557,0.0535,0.4875,159.9500,-41.6300,-72.1300,14.0200,7.3300,7.6600,0.0000,0.0000,-0.0000,1134.0000,1450.0000,1500.0000,2000.0000
289729.5740,2.0000,2000.0000,1488.0000,2000.0000,-334.0000,59.0000,20.0000,604.0000,83.0000,4143.0000,-0.7652,-0.4245,0.0265,0.4833,160.3400,-41.4800,-72.0000,14.3200,7.6700,7.5600,0.0000,0.0000,-0.0000,1070.0000,1057.0000,1500.0000,2000.0000
289746.6130,2.0000,2000.0000,1487.0000,2000.0000,-362.0000,73.0000,19.0000,686.0000,108.0000,3547.0000,-0.7882,-0.3889,-0.0055,0.4769,160.7300,-41.3200,-71.8900,14.7300,7.9100,7.4600,0.0000,0.0000,-0.0000,1070.0000,1057.0000,1500.0000,2000.0000
289763.3480,2.0000,2000.0000,1487.0000,2000.0000,-366.0000,70.0000,18.0000,595.0000,209.0000,1931.0000,-0.8093,-0.3511,-0.0386,0.4693,160.7300,-41.3200,-71.8900,14.7300,7.9100,7.4600,0.0000,0.0000,-0.0000,1070.0000,1057.0000,1500.0000,2000.0000
289780.2350,2.0000,2000.0000,1487.0000,2000.0000,-343.0000,45.0000,14.0000,561.0000,221.0000,552.0000,-0.8277,-0.3123,-0.0695,0.4611,161.1900,-41.1300,-71.7800,15.2300,8.2800,7.4200,0.0000,0.0000,-0.0000,1070.0000,1057.0000,1500.0000,2000.0000
289797.0580,2.0000,2000.0000,1487.0000,2000.0000,-312.0000,14.0000,5.0000,471.0000,383.0000,505.0000,-0.8422,-0.2744,-0.0947,0.4543,161.6500,-40.9300,-71.6800,15.7600,8.5000,7.5000,0.0000,0.0000,-0.0000,1070.0000,1057.0000,1500.0000,2000.0000
289814.0350,2.0000,2000.0000,1487.0000,2000.0000,-297.0000,-13.0000,-6.0000,434.0000,366.0000,1847.0000,-0.8541,-0.2361,-0.1153,0.4489,162.1000,-40.7400,-71.5700,16.2500,8.6700,7.5800,0.0000,0.0000,-0.0000,1070.0000,1057.0000,1500.0000,2000.0000
289831.0760,2.0000,2000.0000,1487.0000,2000.0000,-281.0000,-31.0000,-14.0000,551.0000,-13.0000,3687.0000,-0.8634,-0.1973,-0.1319,0.4453,162.5600,-40.5400,-71.4700,16.7100,8.9400,7.5400,0.0000,0.0000,-0.0000,1070.0000,1057.0000,1500.0000,2000.0000
289847.8910,2.0000,2000.0000,1000.0000,1462.0000,-265.0000,-45.0000,-18.0000,525.0000,-270.0000,4512.0000,-0.8702,-0.1597,-0.1455,0.4427,163.0800,-40.2800,-71.3800,17.1900,9.6100,7.3600,0.0000,0.0000,-0.0000,1974.0000,1065.0000,1500.0000,2000.0000
289864.6960,2.0000,2000.0000,1000.0000,1462.0000,-253.0000,-57.0000,-21.0000,474.0000,-281.0000,4552.0000,-0.8756,-0.1227,-0.1562,0.4403,163.0800,-40.2800,-71.3800,17.1900,9.6100,7.3600,0.0000,0.0000,-0.0000,1974.0000,1065.0000,1500.0000,2000.0000
289881.3190,2.0000,2000.0000,1000.0000,1462.0000,-211.0000,-74.0000,-26.0000,541.0000,-412.0000,4694.0000,-0.8794,-0.0880,-0.1635,0.4384,163.5900,-40.0300,-71.2800,17.6100,10.2000,7.1500,0.0000,0.0000,-0.0000,1974.0000,1065.0000,1500.0000,2000.0000
289898.3960,2.0000,2000.0000,1000.0000,1462.0000,-130.0000,-89.0000,-38.0000,622.0000,-552.0000,5262.0000,-0.8814,-0.0594,-0.1642,0.4389,164.0800,-39.7700,-71.1900,18.0000,10.7200,6.9300,0.0000,0.0000,-0.0000,1974.0000,1065.0000,1500.0000,2000.0000
289915.2050,2.0000,2000.0000,1000.0000,1462.0000,-35.0000,-107.0000,-53.0000,619.0000,-473.0000,5775.0000,-0.8817,-0.0413,-0.1570,0.4430,164.5500,-39.5100,-71.1000,18.3600,11.1800,6.6600,0.0000,0.0000,-0.0000,1974.0000,1065.0000,1500.0000,2000.0000
289932.2660,2.0000,2000.0000,1089.0000,2000.0000,39.0000,-118.0000,-65.0000,694.0000,-602.0000,6685.0000,-0.8804,-0.0328,-0.1422,0.4512,165.0300,-39.2400,-71.0200,18.7100,11.6700,6.3100,0.0000,0.0000,-0.0000,1428.0000,1018.0000,1500.0000,2000.0000
289949.0310,2.0000,2000.0000,1089.0000,2000.0000,94.0000,-130.0000,-68.0000,824.0000,-1021.0000,7770.0000,-0.8780,-0.0321,-0.1221,0.4617,165.5700,-38.9100,-70.9500,19.0400,12.3900,5.8500,0.0000,0.0000,-0.0000,1428.0000,1018.0000,1500.0000,2000.0000
289966.2600,2.0000,2000.0000,1089.0000,2000.0000,97.0000,-137.0000,-60.0000,1013.0000,-1355.0000,8411.0000,-0.8753,-0.0348,-0.0982,0.4723,165.5700,-38.9100,-70.9500,19.0400,12.3900,5.8500,0.0000,0.0000,-0.0000,1428.0000,1018.0000,1500.0000,2000.0000
289983.1980,2.0000,2000.0000,1089.0000,2000.0000,88.0000,-159.0000,-43.0000,1076.0000,-1485.0000,8867.0000,-0.8732,-0.0358,-0.0727,0.4807,166.1000,-38.5700,-70.8900,19.2800,13.0800,5.3100,0.0000,0.0000,-0.0000,1428.0000,1018.0000,1500.0000,2000.0000
290000.0150,2.0000,2000.0000,1089.0000,2000.0000,61.0000,-172.0000,-23.0000,1085.0000,-1565.0000,9624.0000,-0.8721,-0.0334,-0.0464,0.4860,166.6000,-38.2400,-70.8300,19.4200,13.7100,4.7100,0.0000,0.0000,-0.0000,1428.0000,1018.0000,1500.0000,2000.0000
290016.8840,2.0000,2000.0000,1089.0000,2000.0000,33.0000,-185.0000,-6.0000,1278.0000,-1643.0000,10757.0000,-0.8720,-0.0261,-0.0202,0.4885,167.0800,-37.9100,-70.7900,19.4900,14.2700,4.0200,0.0000,0.0000,-0.0000,1428.0000,1018.0000,1500.0000,2000.0000
290033.5360,2.0000,1987.0000,1939.0000,1727.0000,13.0000,-175.0000,3.0000,1263.0000,-1386.0000,11665.0000,-0.8721,-0.0161,0.0043,0.4890,167.5400,-37.5900,-70.7600,19.5000,14.7400,3.2100,0.0000,0.0000,-0.0000,1166.0000,1609.0000,1500.0000,1989.0000
290050.3440,2.0000,1987.0000,1941.0000,1727.0000,0.0000,-149.0000,10.0000,1342.0000,-1292.0000,12882.0000,-0.8724,-0.0050,0.0257,0.4881,167.9900,-37.2600,-70.7300,19.4700,15.1200,2.2500,0.0000,0.0000,-0.0000,1166.0000,1609.0000,1500.0000,1989.0000
290067.4230,2.0000,1987.0000,1941.0000,1727.0000,5.0000,-100.0000,13.0000,1432.0000,-1334.0000,13216.0000,-0.8727,0.0039,0.0423,0.4864,167.9900,-37.2600,-70.7300,19.4700,15.1200,2.2500,0.0000,0.0000,-0.0000,1166.0000,1609.0000,1500.0000,1989.0000
290084.4090,2.0000,1987.0000,1941.0000,1727.0000,-4.0000,-51.0000,20.0000,1402.0000,-1273.0000,12150.0000,-0.8735,0.0089,0.0525,0.4839,168.4200,-36.9400,-70.7300,19.4000,15.4100,1.1800,0.0000,0.0000,-0.0000,1166.0000,1609.0000,1500.0000,1989.0000
290101.4820,2.0000,1987.0000,1941.0000,1727.0000,-41.0000,-7.0000,30.0000,1231.0000,-1043.0000,10573.0000,-0.8752,0.0138,0.0544,0.4805,168.8400,-36.6200,-70.7500,19.3000,15.6400,0.1600,0.0000,0.0000,-0.0000,1166.0000,1609.0000,1500.0000,1989.0000
290118.3140,2.0000,1999.0000,1299.0000,2000.0000,-101.0000,37.0000,36.0000,1081.0000,-867.0000,9373.0000,-0.8776,0.0223,0.0476,0.4765,169.2400,-36.3200,-70.7900,19.2200,15.8100,-0.6500,0.0000,0.0000,-0.0000,1222.0000,1019.0000,1500.0000,2000.0000
290135.2870,2.0000,2000.0000,1297.0000,2000.0000,-164.0000,75.0000,42.0000,1041.0000,-748.0000,8540.0000,-0.8802,0.0358,0.0308,0.4723,169.6200,-36.0100,-70.8400,19.1800,15.9500,-1.3600,0.0000,0.0000,-0.0000,1222.0000,1019.0000,1500.0000,2000.0000
290152.2960,2.0000,2000.0000,1297.0000,2000.0000,-233.0000,106.0000,51.0000,878.0000,-475.0000,6353.0000,-0.8824,0.0553,0.0046,0.4673,170.0000,-35.7200,-70.9000,19.1800,16.0600,-1.9400,0.0000,0.0000,-0.0000,1222.0000,1019.0000,1500.0000,2000.0000
290169.1760,2.0000,2000.0000,1297.0000,2000.0000,-301.0000,105.0000,63.0000,777.0000,-351.0000,3483.0000,-0.8834,0.0833,-0.0287,0.4603,170.0000,-35.7200,-70.9000,19.1800,16.0600,-1.9400,0.0000,0.0000,-0.0000,1222.0000,1019.0000,1500.0000,2000.0000
290186.2370,2.0000,2000.0000,1297.0000,2000.0000,-321.0000,74.0000,72.0000,529.0000,-108.0000,499.0000,-0.8827,0.1182,-0.0632,0.4504,170.3600,-35.4300,-70.9800,19.2300,16.1500,-2.2600,0.0000,0.0000,-0.0000,1222.0000,1019.0000,1500.0000,2000.0000
290203.0460,2.0000,2000.0000,1297.0000,2000.0000,-289.0000,35.0000,73.0000,505.0000,57.0000,-738.0000,-0.8809,0.1535,-0.0917,0.4382,170.7000,-35.1600,-71.0600,19.2500,16.2300,-2.2300,0.0000,0.0000,-0.0000,1222.0000,1019.0000,1500.0000,2000.0000
290220.0500,2.0000,2000.0000,1110.0000,1000.0000,-240.0000,-15.0000,63.0000,561.0000,297.0000,-553.0000,-0.8787,0.1865,-0.1114,0.4251,171.0400,-34.9000,-71.1500,19.2300,16.3000,-2.0000,0.0000,0.0000,-0.0000,1982.0000,1593.0000,1500.0000,2000.0000
290237.1490,2.0000,2000.0000,1110.0000,1000.0000,-206.0000,-70.0000,47.0000,265.0000,366.0000,21.0000,-0.8763,0.2173,-0.1211,0.4126,171.3600,-34.6400,-71.2200,19.2100,16.3500,-1.7600,0.0000,0.0000,-0.0000,1982.0000,1593.0000,1500.0000,2000.0000
290253.8330,2.0000,2000.0000,1110.0000,1000.0000,-168.0000,-108.0000,26.0000,270.0000,402.0000,1690.0000,-0.8736,0.2458,-0.1222,0.4018,171.6700,-34.3900,-71.3000,19.2100,16.3400,-1.6000,0.0000,0.0000,-0.0000,1982.0000,1593.0000,1500.0000,2000.0000
290270.8950,2.0000,2000.0000,1110.0000,1000.0000,-116.0000,-135.0000,3.0000,511.0000,74.0000,3767.0000,-0.8710,0.2714,-0.1154,0.3928,171.6700,-34.3900,-71.3000,19.2100,16.3400,-1.6000,0.0000,0.0000,-0.0000,1982.0000,1593.0000,1500.0000,2000.0000
290287.9120,2.0000,2000.0000,1110.0000,1000.0000,-56.0000,-146.0000,-19.0000,694.0000,-171.0000,5576.0000,-0.8693,0.2906,-0.1016,0.3867,171.9700,-34.1500,-71.3700,19.2900,16.2500,-1.6200,0.0000,0.0000,-0.0000,1982.0000,1593.0000,1500.0000,2000.0000
290304.9300,2.0000,2000.0000,1110.0000,1000.0000,17.0000,-137.0000,-39.0000,836.0000,-375.0000,7320.0000,-0.8686,0.3021,-0.0830,0.3840,172.2600,-33.9300,-71.4500,19.4300,16.1000,-1.8300,0.0000,0.0000,-0.0000,1982.0000,1593.0000,1500.0000,2000.0000
290321.7040,2.0000,2000.0000,1000.0000,1045.0000,110.0000,-96.0000,-51.0000,893.0000,-718.0000,8870.0000,-0.8701,0.3010,-0.0624,0.3853,172.5200,-33.7300,-71.5300,19.5900,15.8700,-2.2000,0.0000,0.0000,-0.0000,1981.0000,1449.0000,1500.0000,2000.0000
290338.7410,2.0000,2000.0000,1000.0000,1070.0000,222.0000,-47.0000,-55.0000,830.0000,-1011.0000,9368.0000,-0.8746,0.2841,-0.0414,0.3906,172.7800,-33.5500,-71.6200,19.7400,15.5800,-2.7200,0.0000,0.0000,-0.0000,1981.0000,1449.0000,1500.0000,2000.0000
290355.5940,2.0000,2000.0000,1000.0000,1070.0000,332.0000,10.0000,-53.0000,619.0000,-990.0000,7893.0000,-0.8825,0.2491,-0.0207,0.3984,173.0400,-33.3700,-71.7200,19.8000,15.3100,-3.3000,0.0000,0.0000,-0.0000,1981.0000,1449.0000,1500.0000,2000.0000
290372.5900,2.0000,2000.0000,1000.0000,1070.0000,422.0000,59.0000,-48.0000,362.0000,-819.0000,6188.0000,-0.8917,0.1976,-0.0016,0.4071,173.2900,-33.2000,-71.8300,19.7500,15.1600,-3.7700,0.0000,0.0000,-0.0000,1981.0000,1449.0000,1500.0000,2000.0000
290389.4580,2.0000,2000.0000,1000.0000,1070.0000,504.0000,102.0000,-42.0000,248.0000,-637.0000,4438.0000,-0.9003,0.1310,0.0170,0.4148,173.2900,-33.2000,-71.8300,19.7500,15.1600,-3.7700,0.0000,0.0000,-0.0000,1981.0000,1449.0000,1500.0000,2000.0000
290406.4430,2.0000,2000.0000,1000.0000,1070.0000,548.0000,136.0000,-34.0000,210.0000,-605.0000,2264.0000,-0.9053,0.0526,0.0345,0.4200,173.5300,-33.0300,-71.9500,19.6000,15.1200,-4.0600,0.0000,0.0000,-0.0000,1981.0000,1449.0000,1500.0000,2000.0000
290423.3120,2.0000,1998.0000,1385.0000,2000.0000,567.0000,161.0000,-22.0000,296.0000,-637.0000,157.0000,-0.9052,-0.0313,0.0490,0.4210,173.7500,-32.8900,-72.0700,19.3900,15.1700,-4.1300,0.0000,0.0000,-0.0000,1136.0000,1023.0000,1500.0000,1999.0000
290440.2460,2.0000,1998.0000,1387.0000,2000.0000,574.0000,172.0000,-12.0000,234.0000,-505.0000,-2410.0000,-0.8992,-0.1184,0.0617,0.4166,174.0700,-32.6300,-72.2000,19.2300,15.2600,-3.9600,0.0000,0.0000,-0.0000,1136.0000,1023.0000,1500.0000,1999.0000
290457.1250,2.0000,1998.0000,1387.0000,2000.0000,541.0000,156.0000,-1.0000,406.0000,-447.0000,-4160.0000,-0.8872,-0.2021,0.0738,0.4081,174.6700,-32.1300,-72.3500,19.2300,15.3000,-3.5900,0.0000,0.0000,-0.0000,1136.0000,1023.0000,1500.0000,1999.0000
290473.7740,2.0000,1998.0000,1387.0000,2000.0000,464.0000,133.0000,13.0000,553.0000,-376.0000,-4715.0000,-0.8716,-0.2750,0.0852,0.3969,174.6700,-32.1300,-72.3500,19.2300,15.3000,-3.5900,0.0000,0.0000,-0.0000,1136.0000,1023.0000,1500.0000,1999.0000
290490.4920,2.0000,1998.0000,1387.0000,2000.0000,351.0000,98.0000,32.0000,778.0000,-474.0000,-4805.0000,-0.8562,-0.3327,0.0945,0.3838,175.2200,-31.6600,-72.5000,19.2900,15.2200,-3.1500,0.0000,0.0000,-0.0000,1136.0000,1023.0000,1500.0000,1999.0000
290507.0990,2.0000,1998.0000,1387.0000,2000.0000,226.0000,47.0000,55.0000,733.0000,-416.0000,-5082.0000,-0.8449,-0.3712,0.1034,0.3711,175.7500,-31.2200,-72.6400,19.3900,15.0900,-2.7400,0.0000,0.0000,-0.0000,1136.0000,1023.0000,1500.0000,1999.0000
290523.9390,2.0000,1999.0000,1240.0000,1000.0000,106.0000,-18.0000,78.0000,611.0000,-407.0000,-4692.0000,-0.8394,-0.3908,0.1146,0.3600,176.2500,-30.8100,-72.7800,19.5000,14.9000,-2.3200,0.0000,0.0000,-0.0000,1943.0000,1684.0000,1500.0000,2000.0000
290540.8630,2.0000,2000.0000,1240.0000,1000.0000,7.0000,-78.0000,99.0000,240.0000,-536.0000,-3808.0000,-0.8402,-0.3929,0.1287,0.3510,176.7400,-30.4100,-72.9100,19.6100,14.6800,-1.9100,0.0000,0.0000,-0.0000,1943.0000,1684.0000,1500.0000,2000.0000
290557.9950,2.0000,2000.0000,1240.0000,1000.0000,-35.0000,-126.0000,110.0000,369.0000,-471.0000,-953.0000,-0.8448,-0.3827,0.1468,0.3440,177.2700,-30.0000,-73.0400,19.6900,14.5000,-1.5300,0.0000,0.0000,-0.0000,1943.0000,1684.0000,1500.0000,2000.0000
290574.8020,2.0000,2000.0000,1240.0000,1000.0000,-21.0000,-149.0000,107.0000,468.0000,-324.0000,1585.0000,-0.8487,-0.3695,0.1684,0.3387,177.2700,-30.0000,-73.0400,19.6900,14.5000,-1.5300,0.0000,0.0000,-0.0000,1943.0000,1684.0000,1500.0000,2000.0000
290591.4490,2.0000,2000.0000,1240.0000,1000.0000,11.0000,-155.0000,94.0000,612.0000,-191.0000,4397.0000,-0.8499,-0.3587,0.1926,0.3345,177.8000,-29.5900,-73.1700,19.5800,14.4900,-1.3400,0.0000,0.0000,-0.0000,1943.0000,1684.0000,1500.0000,2000.0000
290608.1140,2.0000,1999.0000,1737.0000,1207.0000,54.0000,-137.0000,75.0000,778.0000,-6.0000,6585.0000,-0.8480,-0.3530,0.2167,0.3306,178.3100,-29.1900,-73.3000,19.3000,14.6000,-1.3200,0.0000,0.0000,-0.0000,1091.0000,1854.0000,1500.0000,1999.0000
290624.7170,2.0000,1998.0000,2000.0000,1556.0000,117.0000,-102.0000,54.0000,883.0000,153.0000,8069.0000,-0.8428,-0.3558,0.2388,0.3257,178.7800,-28.8000,-73.4300,18.8700,14.8000,-1.5200,0.0000,0.0000,-0.0000,1091.0000,1854.0000,1500.0000,1999.0000
290641.7990,2.0000,1998.0000,2000.0000,1556.0000,185.0000,-35.0000,36.0000,834.0000,297.0000,9040.0000,-0.8343,-0.3699,0.2570,0.3180,179.2600,-28.4200,-73.5600,18.4600,15.0400,-1.8300,0.0000,0.0000,-0.0000,1091.0000,1854.0000,1500.0000,1999.0000
290658.6420,2.0000,1998.0000,2000.0000,1556.0000,225.0000,30.0000,21.0000,823.0000,272.0000,8049.0000,-0.8237,-0.3946,0.2682,0.3063,179.7600,-28.0100,-73.6800,18.1500,15.3000,-2.1600,0.0000,0.0000,-0.0000,1091.0000,1854.0000,1500.0000,1999.0000
290675.7170,2.0000,1998.0000,2000.0000,1556.0000,190.0000,79.0000,9.0000,978.0000,484.0000,6175.0000,-0.8138,-0.4226,0.2715,0.2921,179.7600,-28.0100,-73.6800,18.1500,15.3000,-2.1600,0.0000,0.0000,-0.0000,1091.0000,1854.0000,1500.0000,1999.0000
290692.3730,2.0000,1998.0000,2000.0000,1556.0000,84.0000,107.0000,-8.0000,983.0000,877.0000,3653.0000,-0.8088,-0.4429,0.2663,0.2808,180.2200,-27.6200,-73.8100,17.9400,15.4900,-2.3900,0.0000,0.0000,-0.0000,1091.0000,1854.0000,1500.0000,1999.0000
290709.0850,2.0000,1998.0000,2000.0000,1556.0000,-54.0000,136.0000,-22.0000,727.0000,1090.0000,1658.0000,-0.8121,-0.4496,0.2512,0.2742,180.6600,-27.2500,-73.9300,17.9100,15.5400,-2.5400,0.0000,0.0000,-0.0000,1091.0000,1854.0000,1500.0000,1999.0000
290726.0590,2.0000,1785.0000,2000.0000,1771.0000,-165.0000,180.0000,-33.0000,578.0000,1097.0000,488.0000,-0.8242,-0.4431,0.2255,0.2711,181.0800,-26.8900,-74.0600,18.0200,15.4200,-2.5900,0.0000,0.0000,-0.0000,1092.0000,1639.0000,1500.0000,1797.0000
290742.9150,2.0000,1785.0000,2000.0000,1771.0000,-249.0000,220.0000,-47.0000,611.0000,1064.0000,-1039.0000,-0.8423,-0.4263,0.1899,0.2697,181.5100,-26.5400,-74.1800,18.2100,15.2300,-2.5600,0.0000,0.0000,-0.0000,1092.0000,1639.0000,1500.0000,1797.0000
290759.7360,2.0000,1785.0000,2000.0000,1771.0000,-311.0000,241.0000,-61.0000,518.0000,1129.0000,-3770.0000,-0.8629,-0.4017,0.1465,0.2693,181.9900,-26.1600,-74.3100,18.5100,14.9600,-2.4400,0.0000,0.0000,-0.0000,1092.0000,1639.0000,1500.0000,1797.0000
290776.5570,2.0000,1785.0000,2000.0000,1771.0000,-379.0000,232.0000,-71.0000,432.0000,1217.0000,-6533.0000,-0.8841,-0.3680,0.0984,0.2706,181.9900,-26.1600,-74.3100,18.5100,14.9600,-2.4400,0.0000,0.0000,-0.0000,1092.0000,1639.0000,1500.0000,1797.0000
290793.2080,2.0000,1785.0000,2000.0000,1771.0000,-422.0000,209.0000,-77.0000,384.0000,1182.0000,-8239.0000,-0.9039,-0.3249,0.0498,0.2736,182.4500,-25.8100,-74.4500,18.9000,14.4800,-2.1600,0.0000,0.0000,-0.0000,1092.0000,1639.0000,1500.0000,1797.0000
290809.8570,2.0000,1785.0000,2000.0000,1771.0000,-463.0000,175.0000,-85.0000,357.0000,1183.0000,-8164.0000,-0.9207,-0.2742,0.0031,0.2777,182.9000,-25.4900,-74.5900,19.2500,13.8800,-1.7000,0.0000,0.0000,-0.0000,1092.0000,1639.0000,1500.0000,1797.0000
290826.5930,2.0000,1000.0000,1540.0000,1000.0000,-493.0000,156.0000,-92.0000,319.0000,1137.0000,-7171.0000,-0.9340,-0.2152,-0.0423,0.2821,183.3300,-25.1900,-74.7200,19.4600,13.3600,-1.1400,0.0000,0.0000,-0.0000,1916.0000,1956.0000,1500.0000,1041.0000
290843.4310,2.0000,1000.0000,1540.0000,1000.0000,-509.0000,138.0000,-101.0000,167.0000,931.0000,-6178.0000,-0.9420,-0.1507,-0.0863,0.2871,183.7800,-24.9000,-74.8400,19.5600,13.0000,-0.5700,0.0000,0.0000,-0.0000,1916.0000,1956.0000,1500.0000,1041.0000
290860.1200,2.0000,1000.0000,1540.0000,1000.0000,-472.0000,134.0000,-111.0000,47.0000,800.0000,-5177.0000,-0.9440,-0.0870,-0.1277,0.2917,184.2400,-24.6000,-74.9500,19.5600,12.8000,-0.0000,0.0000,0.0000,-0.0000,1916.0000,1956.0000,1500.0000,1041.0000
290876.7700,2.0000,1000.0000,1540.0000,1000.0000,-387.0000,130.0000,-122.0000,-72.0000,617.0000,-4426.0000,-0.9399,-0.0311,-0.1653,0.2973,184.2400,-24.6000,-74.9500,19.5600,12.8000,-0.0000,0.0000,0.0000,-0.0000,1916.0000,1956.0000,1500.0000,1041.0000
290893.6160,2.0000,1000.0000,1540.0000,1000.0000,-269.0000,134.0000,-134.0000,-266.0000,385.0000,-3998.0000,-0.9313,0.0122,-0.1980,0.3056,184.6900,-24.3100,-75.0500,19.4700,12.6900,0.5000,0.0000,0.0000,-0.0000,1916.0000,1956.0000,1500.0000,1041.0000
290910.4320,2.0000,1000.0000,1540.0000,1000.0000,-123.0000,142.0000,-140.0000,-519.0000,166.0000,-3714.0000,-0.9203,0.0367,-0.2247,0.3182,185.1200,-24.0300,-75.1300,19.3200,12.6300,0.9600,0.0000,0.0000,-0.0000,1916.0000,1956.0000,1500.0000,1041.0000
290927.6430,2.0000,1149.0000,1102.0000,1976.0000,-14.0000,155.0000,-140.0000,-763.0000,-15.0000,-3752.0000,-0.9079,0.0435,-0.2475,0.3356,185.5300,-23.7700,-75.2000,19.1200,12.5800,1.3800,0.0000,0.0000,-0.0000,1460.0000,1063.0000,1500.0000,1195.0000
290944.4840,2.0000,1149.0000,1102.0000,1976.0000,79.0000,157.0000,-132.0000,-834.0000,-114.0000,-4495.0000,-0.8952,0.0351,-0.2655,0.3562,185.9400,-23.5000,-75.2600,18.9500,12.5400,1.7700,0.0000,0.0000,-0.0000,1460.0000,1063.0000,1500.0000,1195.0000
290961.3310,2.0000,1149.0000,1102.0000,1976.0000,130.0000,123.0000,-122.0000,-788.0000,-233.0000,-5823.0000,-0.8831,0.0189,-0.2781,0.3775,186.3800,-23.2100,-75.3100,18.7800,12.4700,2.2300,0.0000,0.0000,-0.0000,1460.0000,1063.0000,1500.0000,1195.0000
290978.2650,2.0000,1149.0000,1102.0000,1976.0000,164.0000,59.0000,-115.0000,-801.0000,-349.0000,-7038.0000,-0.8727,-0.0012,-0.2814,0.3990,186.3800,-23.2100,-75.3100,18.7800,12.4700,2.2300,0.0000,0.0000,-0.0000,1460.0000,1063.0000,1500.0000,1195.0000
290995.1390,2.0000,1149.0000,1102.0000,1976.0000,165.0000,-23.0000,-108.0000,-881.0000,-365.0000,-7310.0000,-0.8650,-0.0190,-0.2739,0.4200,186.7900,-22.9400,-75.3600,18.5300,12.3500,2.8100,0.0000,0.0000,-0.0000,1460.0000,1063.0000,1500.0000,1195.0000
291011.9450,2.0000,1149.0000,1102.0000,1976.0000,141.0000,-96.0000,-96.0000,-915.0000,-476.0000,-6176.0000,-0.8606,-0.0305,-0.2568,0.4388,187.1900,-22.6900,-75.3900,18.2600,12.1800,3.4600,0.0000,0.0000,-0.0000,1460.0000,1063.0000,1500.0000,1195.0000
291029.3220,2.0000,1000.0000,1097.0000,1971.0000,116.0000,-172.0000,-75.0000,-923.0000,-739.0000,-3748.0000,-0.8592,-0.0347,-0.2316,0.4550,187.5700,-22.4400,-75.4100,18.0600,12.0200,4.0800,0.0000,0.0000,-0.0000,1465.0000,1063.0000,1500.0000,1000.0000
291046.4270,2.0000,1000.0000,1097.0000,1971.0000,90.0000,-231.0000,-49.0000,-797.0000,-1052.0000,-616.0000,-0.8612,-0.0319,-0.1985,0.4668,187.9600,-22.1800,-75.4200,18.0300,11.9600,4.5000,0.0000,0.0000,-0.0000,1465.0000,1063.0000,1500.0000,1000.0000
291063.4860,2.0000,1000.0000,1097.0000,1971.0000,81.0000,-264.0000,-23.0000,-648.0000,-1242.0000,2789.0000,-0.8653,-0.0239,-0.1609,0.4742,188.3800,-21.9100,-75.4300,18.1600,12.0100,4.6200,0.0000,0.0000,-0.0000,1465.0000,1063.0000,1500.0000,1000.0000
291080.5770,2.0000,1000.0000,1097.0000,1971.0000,77.0000,-274.0000,3.0000,-402.0000,-1431.0000,5832.0000,-0.8703,-0.0146,-0.1203,0.4773,188.3800,-21.9100,-75.4300,18.1600,12.0100,4.6200,0.0000,0.0000,-0.0000,1465.0000,1063.0000,1500.0000,1000.0000
291097.2610,2.0000,1000.0000,1097.0000,1971.0000,77.0000,-271.0000,26.0000,28.0000,-1521.0000,8325.0000,-0.8756,-0.0053,-0.0802,0.4764,188.8100,-21.6400,-75.4500,18.3900,12.1600,4.4400,0.0000,0.0000,-0.0000,1465.0000,1063.0000,1500.0000,1000.0000
291114.0010,2.0000,1000.0000,1097.0000,1971.0000,69.0000,-247.0000,45.0000,289.0000,-1457.0000,9806.0000,-0.8807,0.0034,-0.0420,0.4718,189.2300,-21.3800,-75.4800,18.6500,12.3300,3.9500,0.0000,0.0000,-0.0000,1465.0000,1063.0000,1500.0000,1000.0000
291130.6830,2.0000,1000.0000,1361.0000,2000.0000,65.0000,-215.0000,56.0000,273.0000,-1384.0000,10778.0000,-0.8854,0.0105,-0.0074,0.4647,189.6300,-21.1200,-75.5200,18.8600,12.4700,3.2600,0.0000,0.0000,-0.0000,1193.0000,1055.0000,1500.0000,1000.0000
291147.3580,2.0000,1000.0000,1362.0000,2000.0000,70.0000,-176.0000,66.0000,192.0000,-1327.0000,10927.0000,-0.8897,0.0149,0.0224,0.4558,190.0700,-20.8500,-75.5500,19.0300,12.5000,2.4500,0.0000,0.0000,-0.0000,1193.0000,1055.0000,1500.0000,1000.0000
291164.4840,2.0000,1000.0000,1362.0000,2000.0000,69.0000,-132.0000,73.0000,125.0000,-1092.0000,10540.0000,-0.8940,0.0161,0.0471,0.4453,190.5200,-20.5800,-75.5900,19.1300,12.4200,1.6300,0.0000,0.0000,-0.0000,1193.0000,1055.0000,1500.0000,1000.0000
291181.2890,2.0000,1000.0000,1362.0000,2000.0000,64.0000,-82.0000,77.0000,8.0000,-850.0000,9883.0000,-0.8984,0.0149,0.0652,0.4341,190.5200,-20.5800,-75.5900,19.1300,12.4200,1.6300,0.0000,0.0000,-0.0000,1193.0000,1055.0000,1500.0000,1000.0000
291198.3770,2.0000,1000.0000,1362.0000,2000.0000,59.0000,-32.0000,80.0000,-110.0000,-714.0000,8926.0000,-0.9032,0.0112,0.0764,0.4222,190.9400,-20.3200,-75.6300,19.1700,12.3000,0.8800,0.0000,0.0000,-0.0000,1193.0000,1055.0000,1500.0000,1000.0000
291215.3270,2.0000,1000.0000,1000.0000,1502.0000,61.0000,7.0000,84.0000,-223.0000,-603.0000,8313.0000,-0.9083,0.0047,0.0818,0.4101,191.3600,-20.0700,-75.6800,19.1800,12.1700,0.2200,0.0000,0.0000,-0.0000,1890.0000,1110.0000,1500.0000,1000.0000
291232.2680,2.0000,1000.0000,1000.0000,1501.0000,42.0000,50.0000,90.0000,-479.0000,-571.0000,7307.0000,-0.9140,-0.0028,0.0810,0.3975,191.7700,-19.8300,-75.7400,19.1600,12.0400,-0.3400,0.0000,0.0000,-0.0000,1890.0000,1110.0000,1500.0000,1000.0000
291249.1150,2.0000,1000.0000,1000.0000,1501.0000,42.0000,82.0000,93.0000,-681.0000,-497.0000,5767.0000,-0.9201,-0.0110,0.0743,0.3843,192.1800,-19.5800,-75.8000,19.0900,11.9600,-0.8100,0.0000,0.0000,-0.0000,1890.0000,1110.0000,1500.0000,1000.0000
291265.8870,2.0000,1000.0000,1000.0000,1501.0000,50.0000,104.0000,95.0000,-733.0000,-380.0000,4551.0000,-0.9262,-0.0216,0.0644,0.3708,192.6100,-19.3300,-75.8600,18.9800,11.9000,-1.1200,0.0000,0.0000,-0.0000,1890.0000,1110.0000,1500.0000,1000.0000
291282.8150,2.0000,1000.0000,1000.0000,1501.0000,40.0000,134.0000,94.0000,-696.0000,-262.0000,4097.0000,-0.9321,-0.0336,0.0507,0.3569,192.6100,-19.3300,-75.8600,18.9800,11.9000,-1.1200,0.0000,0.0000,-0.0000,1890.0000,1110.0000,1500.0000,1000.0000
291299.4870,2.0000,1000.0000,1000.0000,1501.0000,21.0000,160.0000,94.0000,-681.0000,-98.0000,3195.0000,-0.9376,-0.0446,0.0325,0.3432,193.0200,-19.0900,-75.9300,18.9000,11.8500,-1.3300,0.0000,0.0000,-0.0000,1890.0000,1110.0000,1500.0000,1000.0000
291316.4210,2.0000,1526.0000,1017.0000,1865.0000,19.0000,173.0000,91.0000,-641.0000,-44.0000,1786.0000,-0.9425,-0.0552,0.0107,0.3293,193.4300,-18.8500,-76.0000,18.8400,11.8100,-1.4900,0.0000,0.0000,-0.0000,1561.0000,1075.0000,1500.0000,1553.0000
291333.5480,2.0000,1527.0000,1016.0000,1866.0000,26.0000,166.0000,84.0000,-630.0000,57.0000,297.0000,-0.9465,-0.0664,-0.0114,0.3156,193.8200,-18.6200,-76.0700,18.8100,11.7500,-1.4900,0.0000,0.0000,-0.0000,1561.0000,1075.0000,1500.0000,1553.0000
291350.4720,2.0000,1527.0000,1016.0000,1866.0000,30.0000,142.0000,75.0000,-614.0000,225.0000,-909.0000,-0.9492,-0.0777,-0.0309,0.3033,194.2200,-18.3800,-76.1400,18.7800,11.7400,-1.3300,0.0000,0.0000,-0.0000,1561.0000,1075.0000,1500.0000,1553.0000
291367.3670,2.0000,1527.0000,1016.0000,1866.0000,32.0000,106.0000,64.0000,-593.0000,327.0000,-1644.0000,-0.9510,-0.0882,-0.0462,0.2926,194.6300,-18.1300,-76.2000,18.7500,11.7400,-1.0500,0.0000,0.0000,-0.0000,1561.0000,1075.0000,1500.0000,1553.0000
291384.1890,2.0000,1527.0000,1016.0000,1866.0000,29.0000,62.0000,49.0000,-485.0000,493.0000,-2267.0000,-0.9522,-0.0968,-0.0555,0.2843,194.6300,-18.1300,-76.2000,18.7500,11.7400,-1.0500,0.0000,0.0000,-0.0000,1561.0000,1075.0000,1500.0000,1553.0000
291401.0620,2.0000,1527.0000,1016.0000,1866.0000,30.0000,14.0000,34.0000,-365.0000,582.0000,-2589.0000,-0.9530,-0.1030,-0.0588,0.2789,195.0400,-17.8900,-76.2500,18.7200,11.7000,-0.6800,0.0000,0.0000,-0.0000,1561.0000,1075.0000,1500.0000,1553.0000
291417.8010,2.0000,1000.0000,1309.0000,2000.0000,31.0000,-27.0000,20.0000,-241.0000,541.0000,-2233.0000,-0.9535,-0.1074,-0.0560,0.2761,195.4300,-17.6500,-76.3000,18.7000,11.6400,-0.2700,0.0000,0.0000,-0.0000,1107.0000,1045.0000,1500.0000,1087.0000
291434.8830,2.0000,1000.0000,1438.0000,2000.0000,27.0000,-62.0000,8.0000,-110.0000,474.0000,-1471.0000,-0.9538,-0.1097,-0.0482,0.2756,195.8200,-17.4200,-76.3300,18.6800,11.5900,0.1200,0.0000,0.0000,-0.0000,1107.0000,1045.0000,1500.0000,1087.0000
291451.9050,2.0000,1000.0000,1438.0000,2000.0000,13.0000,-89.0000,-2.0000,-118.0000,376.0000,-492.0000,-0.9539,-0.1096,-0.0364,0.2770,196.2100,-17.1800,-76.3600,18.6600,11.5600,0.4400,0.0000,0.0000,-0.0000,1107.0000,1045.0000,1500.0000,1087.0000
291468.5860,2.0000,1000.0000,1438.0000,2000.0000,-20.0000,-108.0000,-8.0000,-214.0000,306.0000,451.0000,-0.9540,-0.1050,-0.0228,0.2797,196.6100,-16.9400,-76.3800,18.6300,11.5500,0.6600,0.0000,0.0000,-0.0000,1107.0000,1045.0000,1500.0000,1087.0000
291485.1710,2.0000,1000.0000,1438.0000,2000.0000,-52.0000,-119.0000,-12.0000,-219.0000,229.0000,1443.0000,-0.9544,-0.0947,-0.0082,0.2830,196.6100,-16.9400,-76.3800,18.6300,11.5500,0.6600,0.0000,0.0000,-0.0000,1107.0000,1045.0000,1500.0000,1087.0000
291501.7210,2.0000,1000.0000,1438.0000,2000.0000,-81.0000,-123.0000,-14.0000,-231.0000,141.0000,2420.0000,-0.9547,-0.0798,0.0061,0.2865,197.0100,-16.7000,-76.3900,18.5800,11.5600,0.7700,0.0000,0.0000,-0.0000,1107.0000,1045.0000,1500.0000,1087.0000
291518.4700,2.0000,1956.0000,1000.0000,1633.0000,-105.0000,-123.0000,-16.0000,-228.0000,0.0000,3203.0000,-0.9548,-0.0615,0.0193,0.2902,197.3900,-16.4700,-76.4100,18.5100,11.5800,0.7600,0.0000,0.0000,-0.0000,1861.0000,1041.0000,1500.0000,2000.0000
291535.3790,2.0000,2000.0000,1000.0000,1599.0000,-120.0000,-120.0000,-16.0000,-245.0000,-65.0000,3724.0000,-0.9544,-0.0398,0.0311,0.2942,197.7600,-16.2400,-76.4200,18.4200,11.6200,0.6700,0.0000,0.0000,-0.0000,1861.0000,1041.0000,1500.0000,2000.0000
291552.0160,2.0000,2000.0000,1000.0000,1599.0000,-112.0000,-122.0000,-17.0000,-89.0000,-146.0000,4127.0000,-0.9535,-0.0184,0.0429,0.2977,198.1500,-16.0000,-76.4300,18.3400,11.6400,0.5100,0.0000,0.0000,-0.0000,1861.0000,1041.0000,1500.0000,2000.0000
291568.5410,2.0000,2000.0000,1000.0000,1599.0000,-93.0000,-119.0000,-25.0000,447.0000,-180.0000,4648.0000,-0.9519,0.0012,0.0547,0.3016,198.5400,-15.7600,-76.4500,18.2900,11.6400,0.3000,0.0000,0.0000,-0.0000,1861.0000,1041.0000,1500.0000,2000.0000
291585.6220,2.0000,2000.0000,1000.0000,1599.0000,-61.0000,-113.0000,-40.0000,1280.0000,-327.0000,5661.0000,-0.9493,0.0171,0.0677,0.3065,198.5400,-15.7600,-76.4500,18.2900,11.6400,0.3000,0.0000,0.0000,-0.0000,1861.0000,1041.0000,1500.0000,2000.0000
291602.6790,2.0000,2000.0000,1000.0000,1599.0000,-27.0000,-106.0000,-40.0000,1792.0000,-505.0000,6648.0000,-0.9461,0.0279,0.0813,0.3122,198.9300,-15.5200,-76.4800,18.2700,11.6700,0.0100,0.0000,0.0000,-0.0000,1861.0000,1041.0000,1500.0000,2000.0000
291619.5190,2.0000,2000.0000,1150.0000,2000.0000,-4.0000,-91.0000,-41.0000,1882.0000,-709.0000,7300.0000,-0.9429,0.0340,0.0946,0.3176,199.3000,-15.2900,-76.5100,18.2700,11.7200,-0.3900,0.0000,0.0000,-0.0000,1363.0000,1015.0000,1500.0000,2000.0000
291636.6090,2.0000,2000.0000,1151.0000,2000.0000,2.0000,-69.0000,-36.0000,1965.0000,-869.0000,7584.0000,-0.9398,0.0373,0.1061,0.3226,199.6700,-15.0600,-76.5400,18.2300,11.7700,-0.8800,0.0000,0.0000,-0.0000,1363.0000,1015.0000,1500.0000,2000.0000
291653.5860,2.0000,2000.0000,1151.0000,2000.0000,-7.0000,-45.0000,-27.0000,2135.0000,-989.0000,7665.0000,-0.9373,0.0397,0.1143,0.3267,200.0500,-14.8300,-76.5900,18.1000,11.7600,-1.4000,0.0000,0.0000,-0.0000,1363.0000,1015.0000,1500.0000,2000.0000
291670.1900,2.0000,2000.0000,1151.0000,2000.0000,-29.0000,-24.0000,-13.0000,2090.0000,-985.0000,7800.0000,-0.9357,0.0438,0.1182,0.3295,200.4200,-14.5900,-76.6400,17.9100,11.7200,-1.9600,0.0000,0.0000,-0.0000,1363.0000,1015.0000,1500.0000,2000.0000
291686.9570,2.0000,2000.0000,1151.0000,2000.0000,-31.0000,-7.0000,2.0000,1806.0000,-948.0000,7041.0000,-0.9350,0.0489,0.1186,0.3306,200.4200,-14.5900,-76.6400,17.9100,11.7200,-1.9600,0.0000,0.0000,-0.0000,1363.0000,1015.0000,1500.0000,2000.0000
291703.8030,2.0000,2000.0000,1151.0000,2000.0000,-27.0000,9.0000,12.0000,1590.0000,-755.0000,5793.0000,-0.9353,0.0526,0.1167,0.3301,200.7900,-14.3600,-76.7100,17.7100,11.6500,-2.4800,0.0000,0.0000,-0.0000,1363.0000,1015.0000,1500.0000,2000.0000
291720.7910,2.0000,2000.0000,1434.0000,2000.0000,-30.0000,26.0000,22.0000,1464.0000,-564.0000,5256.0000,-0.9361,0.0561,0.1127,0.3283,201.1400,-14.1500,-76.7800,17.5100,11.5500,-2.8600,0.0000,0.0000,-0.0000,1092.0000,1027.0000,1500.0000,2000.0000
291737.5590,2.0000,2000.0000,1435.0000,2000.0000,-31.0000,43.0000,34.0000,1431.0000,-627.0000,5019.0000,-0.9378,0.0592,0.1059,0.3252,201.4700,-13.9400,-76.8600,17.3200,11.4200,-3.1600,0.0000,0.0000,-0.0000,1092.0000,1027.0000,1500.0000,2000.0000
291754.3800,2.0000,2000.0000,1435.0000,2000.0000,-29.0000,58.0000,45.0000,1472.0000,-821.0000,4546.0000,-0.9402,0.0616,0.0972,0.3205,201.8100,-13.7300,-76.9400,17.0700,11.2700,-3.4400,0.0000,0.0000,-0.0000,1092.0000,1027.0000,1500.0000,2000.0000
291771.4630,2.0000,2000.0000,1435.0000,2000.0000,-35.0000,64.0000,53.0000,1413.0000,-564.0000,3347.0000,-0.9431,0.0635,0.0866,0.3147,202.1500,-13.5200,-77.0300,16.8000,11.1200,-3.6300,0.0000,0.0000,-0.0000,1092.0000,1027.0000,1500.0000,2000.0000
291788.2660,2.0000,2000.0000,1435.0000,2000.0000,-46.0000,58.0000,58.0000,1498.0000,-405.0000,2624.0000,-0.9460,0.0668,0.0754,0.3082,202.1500,-13.5200,-77.0300,16.8000,11.1200,-3.6300,0.0000,0.0000,-0.0000,1092.0000,1027.0000,1500.0000,2000.0000
291804.8480,2.0000,2000.0000,1435.0000,2000.0000,-53.0000,40.0000,61.0000,1356.0000,-277.0000,1770.0000,-0.9486,0.0722,0.0658,0.3011,202.4800,-13.3200,-77.1100,16.5700,10.9800,-3.7200,0.0000,0.0000,-0.0000,1092.0000,1027.0000,1500.0000,2000.0000
291821.5160,2.0000,2000.0000,1437.0000,2000.0000,-64.0000,19.0000,66.0000,1140.0000,-76.0000,885.0000,-0.9509,0.0796,0.0584,0.2934,202.7900,-13.1300,-77.2000,16.3600,10.8300,-3.7000,0.0000,0.0000,-0.0000,1083.0000,1027.0000,1500.0000,2000.0000
291838.4240,2.0000,2000.0000,1444.0000,2000.0000,-82.0000,-9.0000,65.0000,1228.0000,-26.0000,1188.0000,-0.9528,0.0903,0.0534,0.2850,203.0800,-12.9600,-77.2800,16.1600,10.6500,-3.5800,0.0000,0.0000,-0.0000,1083.0000,1027.0000,1500.0000,2000.0000
291854.9430,2.0000,2000.0000,1444.0000,2000.0000,-102.0000,-31.0000,62.0000,1238.0000,1.0000,1375.0000,-0.9538,0.1042,0.0514,0.2770,203.3800,-12.7700,-77.3600,15.8800,10.4500,-3.4900,0.0000,0.0000,-0.0000,1083.0000,1027.0000,1500.0000,2000.0000
291871.5330,2.0000,2000.0000,1444.0000,2000.0000,-119.0000,-49.0000,59.0000,1242.0000,173.0000,2085.0000,-0.9540,0.1218,0.0517,0.2690,203.6700,-12.6000,-77.4400,15.5800,10.2300,-3.4400,0.0000,0.0000,-0.0000,1083.0000,1027.0000,1500.0000,2000.0000
291888.5780,2.0000,2000.0000,1444.0000,2000.0000,-128.0000,-68.0000,52.0000,1409.0000,-118.0000,2795.0000,-0.9532,0.1423,0.0538,0.2611,203.6700,-12.6000,-77.4400,15.5800,10.2300,-3.4400,0.0000,0.0000,-0.0000,1083.0000,1027.0000,1500.0000,2000.0000
291905.1620,2.0000,2000.0000,1444.0000,2000.0000,-133.0000,-83.0000,44.0000,1518.0000,-366.0000,3371.0000,-0.9514,0.1638,0.0583,0.2541,203.9400,-12.4300,-77.5100,15.3000,9.9900,-3.4700,0.0000,0.0000,-0.0000,1083.0000,1027.0000,1500.0000,2000.0000
291922.1650,2.0000,2000.0000,1421.0000,2000.0000,-142.0000,-94.0000,36.0000,1434.0000,-201.0000,3894.0000,-0.9485,0.1868,0.0649,0.2475,204.2100,-12.2700,-77.5800,15.0500,9.7700,-3.5700,0.0000,0.0000,-0.0000,1103.0000,1024.0000,1500.0000,2000.0000
291939.1160,2.0000,2000.0000,1421.0000,2000.0000,-147.0000,-106.0000,29.0000,1436.0000,-115.0000,4600.0000,-0.9443,0.2111,0.0726,0.2419,204.4600,-12.1200,-77.6500,14.8300,9.5300,-3.7200,0.0000,0.0000,-0.0000,1103.0000,1024.0000,1500.0000,2000.0000
291956.0060,2.0000,2000.0000,1421.0000,2000.0000,-151.0000,-109.0000,23.0000,1389.0000,-32.0000,5104.0000,-0.9390,0.2358,0.0813,0.2369,204.7300,-11.9700,-77.7300,14.7200,9.2400,-3.9400,0.0000,0.0000,-0.0000,1103.0000,1024.0000,1500.0000,2000.0000
291973.0770,2.0000,2000.0000,1421.0000,2000.0000,-148.0000,-113.0000,16.0000,1481.0000,-249.0000,5652.0000,-0.9326,0.2610,0.0906,0.2322,205.0100,-11.8100,-77.8200,14.6400,8.9100,-4.2000,0.0000,0.0000,-0.0000,1103.0000,1024.0000,1500.0000,2000.0000
291990.1480,2.0000,2000.0000,1421.0000,2000.0000,-143.0000,-111.0000,11.0000,1478.0000,-251.0000,5872.0000,-0.9255,0.2853,0.1005,0.2281,205.0100,-11.8100,-77.8200,14.6400,8.9100,-4.2000,0.0000,0.0000,-0.0000,1103.0000,1024.0000,1500.0000,2000.0000
292007.2790,2.0000,2000.0000,1421.0000,2000.0000,-137.0000,-111.0000,8.0000,1603.0000,-438.0000,6334.0000,-0.9177,0.3086,0.1107,0.2242,205.2700,-11.6600,-77.9100,14.5500,8.5600,-4.5000,0.0000,0.0000,-0.0000,1103.0000,1024.0000,1500.0000,2000.0000
292023.8890,2.0000,2000.0000,1424.0000,2000.0000,-128.0000,-105.0000,8.0000,1729.0000,-615.0000,7022.0000,-0.9100,0.3297,0.1203,0.2206,205.5300,-11.5300,-78.0000,14.4700,8.1900,-4.8000,0.0000,0.0000,-0.0000,1101.0000,1025.0000,1500.0000,2000.0000
292040.9300,2.0000,2000.0000,1424.0000,2000.0000,-116.0000,-97.0000,10.0000,1838.0000,-898.0000,7564.0000,-0.9022,0.3497,0.1293,0.2169,205.7800,-11.4000,-78.1000,14.3700,7.7800,-5.1800,0.0000,0.0000,-0.0000,1101.0000,1025.0000,1500.0000,2000.0000
292057.7430,2.0000,2000.0000,1424.0000,2000.0000,-107.0000,-84.0000,17.0000,1619.0000,-817.0000,7242.0000,-0.8949,0.3676,0.1370,0.2126,206.0500,-11.2800,-78.2000,14.3400,7.2900,-5.5800,0.0000,0.0000,-0.0000,1101.0000,1025.0000,1500.0000,2000.0000
292074.3780,2.0000,2000.0000,1424.0000,2000.0000,-91.0000,-68.0000,26.0000,1536.0000,-849.0000,7211.0000,-0.8886,0.3833,0.1425,0.2077,206.3300,-11.1600,-78.3200,14.3200,6.7800,-5.9500,0.0000,0.0000,-0.0000,1101.0000,1025.0000,1500.0000,2000.0000
292091.0890,2.0000,2000.0000,1424.0000,2000.0000,-81.0000,-55.0000,34.0000,1531.0000,-895.0000,6851.0000,-0.8833,0.3969,0.1461,0.2023,206.3300,-11.1600,-78.3200,14.3200,6.7800,-5.9500,0.0000,0.0000,-0.0000,1101.0000,1025.0000,1500.0000,2000.0000
292107.8740,2.0000,2000.0000,1424.0000,2000.0000,-74.0000,-48.0000,42.0000,1491.0000,-787.0000,5941.0000,-0.8787,0.4092,0.1481,0.1961,206.6000,-11.0500,-78.4400,14.2800,6.3000,-6.2800,0.0000,0.0000,-0.0000,1101.0000,1025.0000,1500.0000,2000.0000
292124.8640,2.0000,2000.0000,1434.0000,2000.0000,-73.0000,-46.0000,50.0000,1359.0000,-358.0000,5083.0000,-0.8745,0.4210,0.1491,0.1890,206.8600,-10.9600,-78.5600,14.2500,5.8800,-6.5400,0.0000,0.0000,-0.0000,1091.0000,1026.0000,1500.0000,2000.0000
292141.8390,2.0000,2000.0000,1435.0000,2000.0000,-71.0000,-53.0000,57.0000,1438.0000,-599.0000,4819.0000,-0.8703,0.4329,0.1501,0.1808,207.1100,-10.8800,-78.6800,14.2300,5.5200,-6.7000,0.0000,0.0000,-0.0000,1091.0000,1026.0000,1500.0000,2000.0000
292158.7140,2.0000,2000.0000,1435.0000,2000.0000,-75.0000,-56.0000,61.0000,1464.0000,-625.0000,4682.0000,-0.8659,0.4449,0.1513,0.1714,207.3900,-10.8000,-78.8100,14.2800,5.1400,-6.8400,0.0000,0.0000,-0.0000,1091.0000,1026.0000,1500.0000,2000.0000
292175.3370,2.0000,2000.0000,1435.0000,2000.0000,-86.0000,-70.0000,64.0000,1520.0000,-631.0000,4850.0000,-0.8607,0.4580,0.1530,0.1614,207.6700,-10.7300,-78.9400,14.3500,4.7500,-6.9700,0.0000,0.0000,-0.0000,1091.0000,1026.0000,1500.0000,2000.0000
292192.0660,2.0000,2000.0000,1435.0000,2000.0000,-99.0000,-82.0000,66.0000,1444.0000,-415.0000,4602.0000,-0.8542,0.4727,0.1559,0.1504,207.6700,-10.7300,-78.9400,14.3500,4.7500,-6.9700,0.0000,0.0000,-0.0000,1091.0000,1026.0000,1500.0000,2000.0000
292208.7260,2.0000,2000.0000,1435.0000,2000.0000,-107.0000,-94.0000,64.0000,1442.0000,-375.0000,4510.0000,-0.8462,0.4889,0.1600,0.1387,207.9400,-10.6700,-79.0700,14.4000,4.3700,-7.0700,0.0000,0.0000,-0.0000,1091.0000,1026.0000,1500.0000,2000.0000
292225.6600,2.0000,2000.0000,1459.0000,2000.0000,-117.0000,-102.0000,63.0000,1461.0000,-360.0000,4572.0000,-0.8369,0.5063,0.1652,0.1265,208.2000,-10.6200,-79.2000,14.4500,4.0000,-7.1400,0.0000,0.0000,-0.0000,1068.0000,1028.0000,1500.0000,2000.0000
292242.6800,2.0000,2000.0000,1460.0000,2000.0000,-118.0000,-112.0000,58.0000,1532.0000,-399.0000,5210.0000,-0.8262,0.5245,0.1714,0.1141,208.4500,-10.5800,-79.3300,14.4700,3.6300,-7.1800,0.0000,0.0000,-0.0000,1068.0000,1028.0000,1500.0000,2000.0000
292259.4620,2.0000,2000.0000,1460.0000,2000.0000,-119.0000,-117.0000,54.0000,1415.0000,-107.0000,5193.0000,-0.8148,0.5420,0.1789,0.1017,208.7300,-10.5400,-79.4600,14.4700,3.1200,-7.2300,0.0000,0.0000,-0.0000,1068.0000,1028.0000,1500.0000,2000.0000
292276.4820,2.0000,2000.0000,1460.0000,2000.0000,-119.0000,-121.0000,48.0000,1492.0000,-301.0000,5411.0000,-0.8026,0.5593,0.1873,0.0891,209.0100,-10.5200,-79.5900,14.4500,2.5900,-7.2500,0.0000,0.0000,-0.0000,1068.0000,1028.0000,1500.0000,2000.0000
292293.1900,2.0000,2000.0000,1460.0000,2000.0000,-126.0000,-124.0000,43.0000,1558.0000,-404.0000,5641.0000,-0.7895,0.5764,0.1962,0.0773,209.0100,-10.5200,-79.5900,14.4500,2.5900,-7.2500,0.0000,0.0000,-0.0000,1068.0000,1028.0000,1500.0000,2000.0000
292310.1310,2.0000,2000.0000,1460.0000,2000.0000,-137.0000,-122.0000,40.0000,1642.0000,-431.0000,6018.0000,-0.7750,0.5941,0.2053,0.0660,209.2900,-10.5000,-79.7200,14.4000,2.0700,-7.2600,0.0000,0.0000,-0.0000,1068.0000,1028.0000,1500.0000,2000.0000
292327.0530,2.0000,2000.0000,1398.0000,2000.0000,-143.0000,-122.0000,36.0000,1634.0000,-322.0000,6538.0000,-0.7590,0.6122,0.2144,0.0554,209.5500,-10.5000,-79.8400,14.3400,1.5300,-7.2500,0.0000,0.0000,-0.0000,1135.0000,1033.0000,1500.0000,2000.0000
292343.6950,2.0000,2000.0000,1398.0000,2000.0000,-148.0000,-121.0000,33.0000,1600.0000,-232.0000,6952.0000,-0.7422,0.6303,0.2232,0.0457,209.8100,-10.5000,-79.9700,14.2400,0.9500,-7.2200,0.0000,0.0000,-0.0000,1135.0000,1033.0000,1500.0000,2000.0000
292360.6550,2.0000,2000.0000,1398.0000,2000.0000,-150.0000,-116.0000,31.0000,1588.0000,-261.0000,7001.0000,-0.7244,0.6482,0.2320,0.0363,210.0900,-10.5200,-80.1000,14.2000,0.2300,-7.1500,0.0000,0.0000,-0.0000,1135.0000,1033.0000,1500.0000,2000.0000
292377.4050,2.0000,2000.0000,1398.0000,2000.0000,-143.0000,-111.0000,31.0000,1552.0000,-478.0000,6636.0000,-0.7065,0.6652,0.2400,0.0274,210.3800,-10.5500,-80.2300,14.1300,-0.4700,-7.0400,0.0000,0.0000,-0.0000,1135.0000,1033.0000,1500.0000,2000.0000
292394.4790,2.0000,2000.0000,1398.0000,2000.0000,-132.0000,-101.0000,33.0000,1557.0000,-633.0000,6622.0000,-0.6889,0.6811,0.2472,0.0187,210.3800,-10.5500,-80.2300,14.1300,-0.4700,-7.0400,0.0000,0.0000,-0.0000,1135.0000,1033.0000,1500.0000,2000.0000
292411.1530,2.0000,2000.0000,1398.0000,2000.0000,-114.0000,-92.0000,33.0000,1500.0000,-501.0000,6368.0000,-0.6731,0.6948,0.2531,0.0103,210.6500,-10.6000,-80.3500,14.0500,-1.1100,-6.9100,0.0000,0.0000,-0.0000,1135.0000,1033.0000,1500.0000,2000.0000
292427.8610,2.0000,2000.0000,1000.0000,1536.0000,-108.0000,-83.0000,35.0000,1450.0000,-359.0000,5829.0000,-0.6585,0.7070,0.2578,0.0024,210.9100,-10.6500,-80.4700,13.9600,-1.6900,-6.7500,0.0000,0.0000,-0.0000,1907.0000,1058.0000,1500.0000,2000.0000
292444.7660,2.0000,2000.0000,1000.0000,1536.0000,-95.0000,-76.0000,36.0000,1532.0000,-549.0000,5812.0000,-0.6446,0.7184,0.2613,-0.0050,211.1600,-10.7200,-80.5900,13.8800,-2.1800,-6.5300,0.0000,0.0000,-0.0000,1907.0000,1058.0000,1500.0000,2000.0000
292461.6090,2.0000,2000.0000,1000.0000,1536.0000,-68.0000,-76.0000,34.0000,1458.0000,-675.0000,5154.0000,-0.6329,0.7275,0.2647,-0.0129,211.4500,-10.8000,-80.7100,13.8400,-2.7900,-6.3200,0.0000,0.0000,-0.0000,1907.0000,1058.0000,1500.0000,2000.0000
292478.5540,2.0000,2000.0000,1000.0000,1536.0000,-27.0000,-79.0000,25.0000,1316.0000,-367.0000,4752.0000,-0.6246,0.7330,0.2685,-0.0219,211.7300,-10.8900,-80.8200,13.8000,-3.2900,-6.1000,0.0000,0.0000,-0.0000,1907.0000,1058.0000,1500.0000,2000.0000
292495.4410,2.0000,2000.0000,1000.0000,1536.0000,5.0000,-84.0000,13.0000,1323.0000,-290.0000,4551.0000,-0.6202,0.7345,0.2737,-0.0318,211.7300,-10.8900,-80.8200,13.8000,-3.2900,-6.1000,0.0000,0.0000,-0.0000,1907.0000,1058.0000,1500.0000,2000.0000
292512.1650,2.0000,2000.0000,1000.0000,1536.0000,24.0000,-89.0000,5.0000,1317.0000,-232.0000,4502.0000,-0.6184,0.7329,0.2803,-0.0424,212.0000,-10.9900,-80.9200,13.7500,-3.7400,-5.8600,0.0000,0.0000,-0.0000,1907.0000,1058.0000,1500.0000,2000.0000
292529.4230,2.0000,2000.0000,1447.0000,2000.0000,34.0000,-92.0000,-6.0000,1313.0000,-123.0000,4755.0000,-0.6178,0.7297,0.2882,-0.0531,212.2600,-11.0900,-81.0200,13.7000,-4.1400,-5.6100,0.0000,0.0000,-0.0000,1080.0000,1027.0000,1500.0000,2000.0000
292546.0650,2.0000,2000.0000,1447.0000,2000.0000,41.0000,-103.0000,-15.0000,1402.0000,-346.0000,4872.0000,-0.6179,0.7250,0.2976,-0.0640,212.5200,-11.2000,-81.1200,13.6200,-4.5300,-5.3500,0.0000,0.0000,-0.0000,1080.0000,1027.0000,1500.0000,2000.0000
292562.9790,2.0000,2000.0000,1447.0000,2000.0000,34.0000,-110.0000,-22.0000,1407.0000,-318.0000,4825.0000,-0.6175,0.7195,0.3088,-0.0750,212.8000,-11.3300,-81.2100,13.5100,-5.1000,-5.1000,0.0000,0.0000,-0.0000,1080.0000,1027.0000,1500.0000,2000.0000
292579.6960,2.0000,2000.0000,1447.0000,2000.0000,-1.0000,-117.0000,-21.0000,1397.0000,-438.0000,5082.0000,-0.6144,0.7157,0.3208,-0.0854,212.8000,-11.3300,-81.2100,13.5100,-5.1000,-5.1000,0.0000,0.0000,-0.0000,1080.0000,1027.0000,1500.0000,2000.0000
292596.3720,2.0000,2000.0000,1447.0000,2000.0000,-50.0000,-129.0000,-15.0000,1318.0000,-496.0000,4860.0000,-0.6061,0.7157,0.3337,-0.0949,213.0800,-11.4700,-81.2900,13.3800,-5.6200,-4.8500,0.0000,0.0000,-0.0000,1080.0000,1027.0000,1500.0000,2000.0000
292613.3580,2.0000,2000.0000,1200.0000,2000.0000,-93.0000,-135.0000,-8.0000,1192.0000,-403.0000,4564.0000,-0.5919,0.7199,0.3473,-0.1038,213.3300,-11.6200,-81.3600,13.2300,-6.1000,-4.6100,0.0000,0.0000,-0.0000,1481.0000,1072.0000,1500.0000,2000.0000
292630.2370,2.0000,2000.0000,1090.0000,1946.0000,-124.0000,-142.0000,-4.0000,1254.0000,-653.0000,4506.0000,-0.5730,0.7270,0.3613,-0.1122,213.5900,-11.7700,-81.4400,13.0600,-6.5200,-4.3400,0.0000,0.0000,-0.0000,1481.0000,1072.0000,1500.0000,2000.0000
292646.9920,2.0000,2000.0000,1090.0000,1946.0000,-133.0000,-150.0000,-1.0000,1151.0000,-600.0000,4156.0000,-0.5511,0.7355,0.3754,-0.1201,213.8300,-11.9200,-81.5000,12.8900,-6.8900,-4.0800,0.0000,0.0000,-0.0000,1481.0000,1072.0000,1500.0000,2000.0000
292664.0970,2.0000,2000.0000,1090.0000,1946.0000,-107.0000,-169.0000,-3.0000,1129.0000,-386.0000,4454.0000,-0.5287,0.7423,0.3904,-0.1303,214.0900,-12.1000,-81.5600,12.7200,-7.3300,-3.7800,0.0000,0.0000,-0.0000,1481.0000,1072.0000,1500.0000,2000.0000
292681.2420,2.0000,2000.0000,1090.0000,1946.0000,-77.0000,-184.0000,-9.0000,1267.0000,-530.0000,5562.0000,-0.5082,0.7455,0.4064,-0.1440,214.3500,-12.2800,-81.6100,12.5100,-7.7700,-3.4300,0.0000,0.0000,-0.0000,1481.0000,1072.0000,1500.0000,2000.0000
292698.3000,2.0000,2000.0000,1090.0000,1946.0000,-52.0000,-192.0000,-11.0000,1484.0000,-810.0000,6955.0000,-0.4899,0.7455,0.4226,-0.1600,214.3500,-12.2800,-81.6100,12.5100,-7.7700,-3.4300,0.0000,0.0000,-0.0000,1481.0000,1072.0000,1500.0000,2000.0000
292715.1000,2.0000,2000.0000,1090.0000,1946.0000,-52.0000,-188.0000,-9.0000,1587.0000,-932.0000,7868.0000,-0.4726,0.7442,0.4379,-0.1764,214.5900,-12.4700,-81.6500,12.1800,-8.2700,-3.0000,0.0000,0.0000,-0.0000,1481.0000,1072.0000,1500.0000,2000.0000
292732.2850,2.0000,2000.0000,1114.0000,2000.0000,-49.0000,-182.0000,-5.0000,1711.0000,-1058.0000,8486.0000,-0.4549,0.7424,0.4524,-0.1926,214.8100,-12.6600,-81.6800,11.7700,-8.7900,-2.5200,0.0000,0.0000,-0.0000,1432.0000,1048.0000,1500.0000,2000.0000
292749.1550,2.0000,2000.0000,1115.0000,2000.0000,-39.0000,-179.0000,-3.0000,1664.0000,-943.0000,8524.0000,-0.4380,0.7402,0.4656,-0.2086,215.0300,-12.8600,-81.7000,11.2900,-9.3100,-1.9800,0.0000,0.0000,-0.0000,1432.0000,1048.0000,1500.0000,2000.0000
292766.0680,2.0000,2000.0000,1115.0000,2000.0000,-29.0000,-172.0000,1.0000,1592.0000,-880.0000,8493.0000,-0.4222,0.7370,0.4774,-0.2250,215.2600,-13.1000,-81.7100,10.7600,-9.9100,-1.4100,0.0000,0.0000,-0.0000,1432.0000,1048.0000,1500.0000,2000.0000
292782.8480,2.0000,2000.0000,1115.0000,2000.0000,-25.0000,-165.0000,5.0000,1427.0000,-857.0000,8442.0000,-0.4074,0.7335,0.4878,-0.2410,215.4700,-13.3400,-81.7100,10.2400,-10.4100,-0.8200,0.0000,0.0000,-0.0000,1432.0000,1048.0000,1500.0000,2000.0000
292799.5500,2.0000,2000.0000,1115.0000,2000.0000,-18.0000,-154.0000,11.0000,1493.0000,-1124.0000,8816.0000,-0.3935,0.7300,0.4965,-0.2565,215.4700,-13.3400,-81.7100,10.2400,-10.4100,-0.8200,0.0000,0.0000,-0.0000,1432.0000,1048.0000,1500.0000,2000.0000
292816.3740,2.0000,2000.0000,1000.0000,1468.0000,-13.0000,-139.0000,18.0000,1390.0000,-1275.0000,8873.0000,-0.3810,0.7266,0.5031,-0.2715,215.6700,-13.5800,-81.6900,9.6900,-10.8400,-0.2200,0.0000,0.0000,-0.0000,1971.0000,1063.0000,1500.0000,2000.0000
292833.4780,2.0000,2000.0000,1000.0000,1467.0000,-11.0000,-112.0000,28.0000,1253.0000,-1348.0000,8776.0000,-0.3696,0.7242,0.5075,-0.2853,215.8400,-13.8200,-81.6600,9.1400,-11.2000,0.3600,0.0000,0.0000,-0.0000,1971.0000,1063.0000,1500.0000,2000.0000
292850.4280,2.0000,2000.0000,1000.0000,1467.0000,-9.0000,-95.0000,37.0000,1162.0000,-1100.0000,7746.0000,-0.3593,0.7232,0.5095,-0.2971,216.0100,-14.0700,-81.6200,8.6000,-11.5100,0.9400,0.0000,0.0000,-0.0000,1971.0000,1063.0000,1500.0000,2000.0000
292867.5720,2.0000,2000.0000,1000.0000,1467.0000,19.0000,-85.0000,41.0000,1179.0000,-918.0000,6697.0000,-0.3514,0.7223,0.5093,-0.3089,216.1800,-14.3500,-81.5600,8.1200,-11.8900,1.4700,0.0000,0.0000,-0.0000,1971.0000,1063.0000,1500.0000,2000.0000
292884.5070,2.0000,2000.0000,1000.0000,1467.0000,40.0000,-67.0000,43.0000,1272.0000,-1089.0000,7003.0000,-0.3469,0.7207,0.5070,-0.3213,216.3400,-14.6300,-81.4900,7.7200,-12.2100,1.9600,0.0000,0.0000,-0.0000,1971.0000,1063.0000,1500.0000,2000.0000
292901.3400,2.0000,2000.0000,1000.0000,1467.0000,60.0000,-47.0000,41.0000,1196.0000,-889.0000,7093.0000,-0.3464,0.7188,0.5024,-0.3329,216.3400,-14.6300,-81.4900,7.7200,-12.2100,1.9600,0.0000,0.0000,-0.0000,1971.0000,1063.0000,1500.0000,2000.0000
292917.9930,2.0000,2000.0000,1000.0000,1525.0000,76.0000,-24.0000,37.0000,1057.0000,-634.0000,6281.0000,-0.3492,0.7169,0.4963,-0.3433,216.4800,-14.9100,-81.4200,7.3000,-12.4900,2.4600,0.0000,0.0000,-0.0000,1928.0000,1047.0000,1500.0000,2000.0000
292935.2270,2.0000,2000.0000,1000.0000,1526.0000,92.0000,-10.0000,30.0000,1045.0000,-450.0000,5164.0000,-0.3556,0.7144,0.4886,-0.3527,216.6100,-15.1800,-81.3300,6.9700,-12.7100,2.9300,0.0000,0.0000,-0.0000,1928.0000,1047.0000,1500.0000,2000.0000
292951.9350,2.0000,2000.0000,1000.0000,1526.0000,107.0000,-12.0000,21.0000,983.0000,-377.0000,3779.0000,-0.3641,0.7108,0.4809,-0.3618,216.7400,-15.4500,-81.2400,6.7200,-12.9100,3.3400,0.0000,0.0000,-0.0000,1928.0000,1047.0000,1500.0000,2000.0000
292968.7200,2.0000,2000.0000,1000.0000,1526.0000,118.0000,-23.0000,8.0000,892.0000,-186.0000,2378.0000,-0.3741,0.7050,0.4739,-0.3721,216.8700,-15.7700,-81.1200,6.4600,-13.1900,3.6800,0.0000,0.0000,-0.0000,1928.0000,1047.0000,1500.0000,2000.0000
292985.7810,2.0000,2000.0000,1000.0000,1526.0000,131.0000,-41.0000,-5.0000,657.0000,192.0000,1821.0000,-0.3850,0.6964,0.4683,-0.3840,216.9900,-16.0900,-80.9900,6.3400,-13.3900,3.9700,0.0000,0.0000,-0.0000,1928.0000,1047.0000,1500.0000,2000.0000
293002.4390,2.0000,2000.0000,1000.0000,1526.0000,141.0000,-65.0000,-17.0000,602.0000,113.0000,1731.0000,-0.3958,0.6850,0.4646,-0.3979,216.9900,-16.0900,-80.9900,6.3400,-13.3900,3.9700,0.0000,0.0000,-0.0000,1928.0000,1047.0000,1500.0000,2000.0000
293019.4500,2.0000,2000.0000,1434.0000,2000.0000,158.0000,-88.0000,-28.0000,828.0000,-301.0000,2305.0000,-0.4070,0.6702,0.4621,-0.4143,217.1100,-16.4000,-80.8600,6.2700,-13.5500,4.2600,0.0000,0.0000,-0.0000,1092.0000,1027.0000,1500.0000,2000.0000
293036.1910,2.0000,2000.0000,1435.0000,2000.0000,174.0000,-102.0000,-37.0000,799.0000,-375.0000,2461.0000,-0.4187,0.6521,0.4607,-0.4326,217.2100,-16.7100,-80.7200,6.0800,-13.7400,4.5100,0.0000,0.0000,-0.0000,1092.0000,1027.0000,1500.0000,2000.0000
293053.0150,2.0000,2000.0000,1435.0000,2000.0000,166.0000,-117.0000,-40.0000,840.0000,-429.0000,3160.0000,-0.4303,0.6317,0.4598,-0.4521,217.3200,-17.0800,-80.5600,5.6200,-13.9900,4.7800,0.0000,0.0000,-0.0000,1092.0000,1027.0000,1500.0000,2000.0000
293070.0870,2.0000,2000.0000,1435.0000,2000.0000,125.0000,-138.0000,-34.0000,895.0000,-432.0000,3955.0000,-0.4380,0.6109,0.4612,-0.4713,217.4100,-17.4300,-80.4000,5.1400,-14.2100,5.0400,0.0000,0.0000,-0.0000,1092.0000,1027.0000,1500.0000,2000.0000
293087.1470,2.0000,2000.0000,1435.0000,2000.0000,54.0000,-151.0000,-19.0000,962.0000,-715.0000,4980.0000,-0.4382,0.5930,0.4665,-0.4885,217.4900,-17.7600,-80.2400,4.6100,-14.3900,5.2900,0.0000,0.0000,-0.0000,1092.0000,1027.0000,1500.0000,2000.0000
293103.9740,2.0000,2000.0000,1435.0000,2000.0000,-9.0000,-161.0000,0.0000,986.0000,-944.0000,5957.0000,-0.4303,0.5800,0.4754,-0.5024,217.4900,-17.7600,-80.2400,4.6100,-14.3900,5.2900,0.0000,0.0000,-0.0000,1092.0000,1027.0000,1500.0000,2000.0000
293120.8570,2.0000,2000.0000,1000.0000,1549.0000,-56.0000,-170.0000,18.0000,1112.0000,-1194.0000,6984.0000,-0.4153,0.5709,0.4871,-0.5141,217.5600,-18.0800,-80.0900,4.0000,-14.5300,5.5100,0.0000,0.0000,-0.0000,1889.0000,1064.0000,1500.0000,2000.0000
293137.4420,2.0000,2000.0000,1000.0000,1548.0000,-84.0000,-176.0000,33.0000,1123.0000,-1054.0000,7746.0000,-0.3955,0.5643,0.5002,-0.5244,217.6100,-18.4000,-79.9300,3.2900,-14.6600,5.7300,0.0000,0.0000,-0.0000,1889.0000,1064.0000,1500.0000,2000.0000
293154.2590,2.0000,2000.0000,1000.0000,1548.0000,-84.0000,-177.0000,43.0000,1361.0000,-1276.0000,8891.0000,-0.3725,0.5587,0.5133,-0.5345,217.6500,-18.7600,-79.7600,2.4300,-14.7800,5.9900,0.0000,0.0000,-0.0000,1889.0000,1064.0000,1500.0000,2000.0000
293171.2740,2.0000,2000.0000,1000.0000,1548.0000,-44.0000,-180.0000,46.0000,1463.0000,-1248.0000,9459.0000,-0.3501,0.5517,0.5240,-0.5463,217.6600,-19.1000,-79.5900,1.5300,-14.8400,6.2700,0.0000,0.0000,-0.0000,1889.0000,1064.0000,1500.0000,2000.0000
293187.9420,2.0000,2000.0000,1000.0000,1548.0000,1.0000,-180.0000,42.0000,1513.0000,-1019.0000,10128.0000,-0.3317,0.5420,0.5305,-0.5610,217.6600,-19.4300,-79.4100,0.6300,-14.8200,6.5800,0.0000,0.0000,-0.0000,1889.0000,1064.0000,1500.0000,2000.0000
293204.8890,2.0000,2000.0000,1000.0000,1548.0000,40.0000,-165.0000,37.0000,1572.0000,-1066.0000,10883.0000,-0.3169,0.5301,0.5334,-0.5780,217.6600,-19.4300,-79.4100,0.6300,-14.8200,6.5800,0.0000,0.0000,-0.0000,1889.0000,1064.0000,1500.0000,2000.0000
293221.6440,2.0000,2000.0000,1106.0000,2000.0000,60.0000,-152.0000,31.0000,1538.0000,-1017.0000,11209.0000,-0.3060,0.5174,0.5332,-0.5953,217.6500,-19.7400,-79.2400,-0.2700,-14.7200,6.8900,0.0000,0.0000,-0.0000,1412.0000,1019.0000,1500.0000,2000.0000
293238.4630,2.0000,2000.0000,1106.0000,2000.0000,72.0000,-126.0000,22.0000,1367.0000,-998.0000,11022.0000,-0.2984,0.5046,0.5310,-0.6119,217.6100,-20.0500,-79.0500,-1.1900,-14.5300,7.1700,0.0000,0.0000,-0.0000,1412.0000,1019.0000,1500.0000,2000.0000
293255.5540,2.0000,2000.0000,1106.0000,2000.0000,63.0000,-104.0000,15.0000,1052.0000,-674.0000,9922.0000,-0.2934,0.4926,0.5277,-0.6266,217.5600,-20.3800,-78.8500,-2.0800,-14.2600,7.4300,0.0000,0.0000,-0.0000,1412.0000,1019.0000,1500.0000,2000.0000
293272.3040,2.0000,2000.0000,1106.0000,2000.0000,36.0000,-85.0000,12.0000,960.0000,-631.0000,9114.0000,-0.2893,0.4835,0.5257,-0.6373,217.5000,-20.6900,-78.6400,-2.8100,-13.9800,7.6500,0.0000,0.0000,-0.0000,1412.0000,1019.0000,1500.0000,2000.0000
293289.2490,2.0000,2000.0000,1106.0000,2000.0000,0.0000,-83.0000,11.0000,897.0000,-837.0000,8192.0000,-0.2835,0.4763,0.5263,-0.6448,217.4200,-20.9800,-78.4300,-3.3900,-13.7100,7.8300,0.0000,0.0000,-0.0000,1412.0000,1019.0000,1500.0000,2000.0000
293306.0700,2.0000,2000.0000,1106.0000,2000.0000,-20.0000,-86.0000,11.0000,861.0000,-845.0000,7650.0000,-0.2760,0.4702,0.5293,-0.6500,217.4200,-20.9800,-78.4300,-3.3900,-13.7100,7.8300,0.0000,0.0000,-0.0000,1412.0000,1019.0000,1500.0000,2000.0000
293323.1490,2.0000,2000.0000,1106.0000,2000.0000,-30.0000,-90.0000,8.0000,690.0000,-595.0000,7004.0000,-0.2670,0.4640,0.5341,-0.6543,217.3400,-21.2600,-78.2300,-3.8500,-13.4700,7.9700,0.0000,0.0000,-0.0000,1412.0000,1019.0000,1500.0000,2000.0000
293340.4060,2.0000,2000.0000,1106.0000,2000.0000,-33.0000,-99.0000,8.0000,746.0000,-595.0000,7343.0000,-0.2569,0.4571,0.5401,-0.6583,217.2500,-21.5400,-78.0000,-4.2700,-13.2300,8.1400,0.0000,0.0000,-0.0000,1412.0000,1019.0000,1500.0000,2000.0000
293357.4030,2.0000,2000.0000,1106.0000,2000.0000,-30.0000,-115.0000,9.0000,820.0000,-743.0000,7214.0000,-0.2460,0.4489,0.5462,-0.6631,217.1400,-21.8400,-77.7600,-4.8300,-12.9800,8.3400,0.0000,0.0000,-0.0000,1412.0000,1019.0000,1500.0000,2000.0000
293374.5190,2.0000,2000.0000,1106.0000,2000.0000,-30.0000,-132.0000,12.0000,869.0000,-826.0000,7403.0000,-0.2335,0.4393,0.5525,-0.6687,217.0200,-22.1100,-77.5200,-5.3300,-12.7300,8.5200,0.0000,0.0000,-0.0000,1412.0000,1019.0000,1500.0000,2000.0000
293391.3510,2.0000,2000.0000,1106.0000,2000.0000,-24.0000,-151.0000,14.0000,893.0000,-824.0000,7673.0000,-0.2195,0.4279,0.5588,-0.6756,216.9000,-22.3800,-77.2800,-5.8200,-12.4500,8.7000,0.0000,0.0000,-0.0000,1412.0000,1019.0000,1500.0000,2000.0000
293408.1640,2.0000,2000.0000,1106.0000,2000.0000,-16.0000,-164.0000,16.0000,982.0000,-853.0000,8456.0000,-0.2047,0.4146,0.5642,-0.6840,216.9000,-22.3800,-77.2800,-5.8200,-12.4500,8.7000,0.0000,0.0000,-0.0000,1412.0000,1019.0000,1500.0000,2000.0000
293425.1790,2.0000,2000.0000,1106.0000,2000.0000,-10.0000,-176.0000,16.0000,1088.0000,-876.0000,9253.0000,-0.1890,0.3999,0.5688,-0.6934,216.7800,-22.6300,-77.0400,-6.3000,-12.1200,8.8600,0.0000,0.0000,-0.0000,1412.0000,1019.0000,1500.0000,2000.0000
293441.9300,2.0000,2000.0000,1106.0000,2000.0000,-11.0000,-179.0000,19.0000,1281.0000,-1056.0000,10143.0000,-0.1726,0.3841,0.5731,-0.7030,216.6400,-22.8700,-76.7900,-6.8700,-11.7200,9.0300,0.0000,0.0000,-0.0000,1412.0000,1019.0000,1500.0000,2000.0000
293458.7830,2.0000,2000.0000,1106.0000,2000.0000,-19.0000,-175.0000,22.0000,1424.0000,-1149.0000,10730.0000,-0.1554,0.3683,0.5774,-0.7119,216.4700,-23.1300,-76.5200,-7.6100,-11.2300,9.1700,0.0000,0.0000,-0.0000,1412.0000,1019.0000,1500.0000,2000.0000
293475.5900,2.0000,2000.0000,1106.0000,2000.0000,-25.0000,-170.0000,25.0000,1448.0000,-1038.0000,11198.0000,-0.1379,0.3533,0.5818,-0.7195,216.3000,-23.3700,-76.2500,-8.3300,-10.6800,9.3000,0.0000,0.0000,-0.0000,1412.0000,1019.0000,1500.0000,2000.0000
293492.5690,2.0000,2000.0000,1106.0000,2000.0000,-39.0000,-160.0000,27.0000,1427.0000,-908.0000,11679.0000,-0.1202,0.3395,0.5866,-0.7254,216.1200,-23.5900,-75.9800,-8.9900,-10.0700,9.4200,0.0000,0.0000,-0.0000,1412.0000,1019.0000,1500.0000,2000.0000
293509.5690,2.0000,2000.0000,1106.0000,2000.0000,-46.0000,-144.0000,29.0000,1353.0000,-859.0000,11650.0000,-0.1029,0.3272,0.5918,-0.7295,216.1200,-23.5900,-75.9800,-8.9900,-10.0700,9.4200,0.0000,0.0000,-0.0000,1412.0000,1019.0000,1500.0000,2000.0000
293526.2610,2.0000,2000.0000,1106.0000,2000.0000,-51.0000,-129.0000,30.0000,1291.0000,-865.0000,11729.0000,-0.0866,0.3168,0.5973,-0.7317,215.9300,-23.7900,-75.7200,-9.6000,-9.4100,9.5300,0.0000,0.0000,-0.0000,1412.0000,1019.0000,1500.0000,2000.0000
293543.3280,2.0000,2000.0000,1106.0000,2000.0000,-53.0000,-107.0000,30.0000,1103.0000,-916.0000,11434.0000,-0.0712,0.3080,0.6027,-0.7327,215.7200,-23.9800,-75.4500,-10.2100,-8.7100,9.6200,0.0000,0.0000,-0.0000,1412.0000,1019.0000,1500.0000,2000.0000
293560.0640,2.0000,2000.0000,1106.0000,2000.0000,-48.0000,-97.0000,28.0000,1025.0000,-774.0000,10440.0000,-0.0579,0.3011,0.6071,-0.7331,215.4900,-24.1700,-75.1700,-10.8900,-7.9500,9.7200,0.0000,0.0000,-0.0000,1412.0000,1019.0000,1500.0000,2000.0000
293576.7070,2.0000,2000.0000,1106.0000,2000.0000,-49.0000,-82.0000,26.0000,942.0000,-695.0000,9539.0000,-0.0462,0.2954,0.6115,-0.7326,215.2500,-24.3400,-74.9000,-11.4300,-7.2900,9.8300,0.0000,0.0000,-0.0000,1412.0000,1019.0000,1500.0000,2000.0000
293593.6360,2.0000,2000.0000,1106.0000,2000.0000,-44.0000,-74.0000,24.0000,843.0000,-725.0000,8617.0000,-0.0355,0.2903,0.6153,-0.7320,215.0100,-24.4900,-74.6200,-11.8400,-6.7500,9.9500,0.0000,0.0000,-0.0000,1412.0000,1019.0000,1500.0000,2000.0000
293610.3830,2.0000,2000.0000,1106.0000,2000.0000,-42.0000,-78.0000,23.0000,848.0000,-782.0000,8341.0000,-0.0254,0.2853,0.6187,-0.7315,215.0100,-24.4900,-74.6200,-11.8400,-6.7500,9.9500,0.0000,0.0000,-0.0000,1412.0000,1019.0000,1500.0000,2000.0000
293627.2920,2.0000,2000.0000,1106.0000,2000.0000,-41.0000,-91.0000,20.0000,917.0000,-915.0000,8176.0000,-0.0147,0.2793,0.6222,-0.7312,214.7600,-24.6300,-74.3300,-12.1600,-6.2700,10.0700,0.0000,0.0000,-0.0000,1412.0000,1019.0000,1500.0000,2000.0000
293644.2410,2.0000,2000.0000,1106.0000,2000.0000,-39.0000,-107.0000,20.0000,943.0000,-884.0000,7709.0000,-0.0024,0.2711,0.6257,-0.7314,214.5000,-24.7600,-74.0500,-12.5700,-5.7600,10.1900,0.0000,0.0000,-0.0000,1412.0000,1019.0000,1500.0000,2000.0000
293661.0350,2.0000,2000.0000,1106.0000,2000.0000,-37.0000,-125.0000,18.0000,837.0000,-665.0000,7392.0000,0.0110,0.2609,0.6286,-0.7326,214.2100,-24.8900,-73.7600,-13.0900,-5.1800,10.3100,0.0000,0.0000,-0.0000,1412.0000,1019.0000,1500.0000,2000.0000
293678.0560,2.0000,2000.0000,1106.0000,2000.0000,-41.0000,-145.0000,20.0000,857.0000,-626.0000,8033.0000,0.0263,0.2486,0.6314,-0.7341,213.9300,-25.0000,-73.4800,-13.5100,-4.6400,10.4400,0.0000,0.0000,-0.0000,1412.0000,1019.0000,1500.0000,2000.0000
293694.8700,2.0000,2000.0000,1106.0000,2000.0000,-43.0000,-153.0000,19.0000,976.0000,-701.0000,8845.0000,0.0430,0.2348,0.6344,-0.7352,213.6400,-25.0900,-73.1900,-13.9000,-4.0300,10.5800,0.0000,0.0000,-0.0000,1412.0000,1019.0000,1500.0000,2000.0000
293711.9310,2.0000,2000.0000,1106.0000,2000.0000,-48.0000,-159.0000,18.0000,1127.0000,-684.0000,9313.0000,0.0606,0.2197,0.6373,-0.7361,213.6400,-25.0900,-73.1900,-13.9000,-4.0300,10.5800,0.0000,0.0000,-0.0000,1412.0000,1019.0000,1500.0000,2000.0000
293728.8310,2.0000,2000.0000,1106.0000,2000.0000,-47.0000,-162.0000,17.0000,1302.0000,-824.0000,9993.0000,0.0783,0.2041,0.6400,-0.7366,213.3500,-25.1700,-72.9000,-14.2500,-3.3800,10.7000,0.0000,0.0000,-0.0000,1412.0000,1019.0000,1500.0000,2000.0000
293745.7830,2.0000,2000.0000,1106.0000,2000.0000,-39.0000,-161.0000,17.0000,1354.0000,-838.0000,10761.0000,0.0961,0.1881,0.6418,-0.7372,213.0500,-25.2400,-72.6200,-14.6700,-2.6200,10.8100,0.0000,0.0000,-0.0000,1412.0000,1019.0000,1500.0000,2000.0000
293762.6690,2.0000,2000.0000,1106.0000,2000.0000,-39.0000,-153.0000,16.0000,1256.0000,-810.0000,11100.0000,0.1131,0.1726,0.6431,-0.7374,212.7100,-25.2900,-72.3300,-15.1600,-1.7000,10.9000,0.0000,0.0000,-0.0000,1412.0000,1019.0000,1500.0000,2000.0000
293779.4820,2.0000,2000.0000,1106.0000,2000.0000,-43.0000,-146.0000,18.0000,1293.0000,-838.0000,11599.0000,0.1291,0.1582,0.6444,-0.7369,212.3800,-25.3300,-72.0500,-15.5500,-0.7600,10.9700,0.0000,0.0000,-0.0000,1412.0000,1019.0000,1500.0000,2000.0000
293796.2990,2.0000,2000.0000,1106.0000,2000.0000,-44.0000,-141.0000,18.0000,1330.0000,-961.0000,11454.0000,0.1445,0.1444,0.6458,-0.7357,212.0500,-25.3400,-71.7600,-15.8700,0.1600,11.0100,0.0000,0.0000,-0.0000,1412.0000,1019.0000,1500.0000,2000.0000
293813.3160,2.0000,2000.0000,1106.0000,2000.0000,-45.0000,-130.0000,20.0000,1230.0000,-952.0000,11117.0000,0.1593,0.1314,0.6470,-0.7340,212.0500,-25.3400,-71.7600,-15.8700,0.1600,11.0100,0.0000,0.0000,-0.0000,1412.0000,1019.0000,1500.0000,2000.0000
293830.4240,2.0000,2000.0000,1106.0000,2000.0000,-45.0000,-116.0000,20.0000,1073.0000,-924.0000,10676.0000,0.1730,0.1198,0.6485,-0.7316,211.7200,-25.3300,-71.4900,-16.0900,1.0000,11.0400,0.0000,0.0000,-0.0000,1412.0000,1019.0000,1500.0000,2000.0000
293847.1610,2.0000,2000.0000,1106.0000,2000.0000,-45.0000,-108.0000,24.0000,1076.0000,-1084.0000,10651.0000,0.1861,0.1092,0.6498,-0.7288,211.3800,-25.3100,-71.2200,-16.2800,1.8700,11.0700,0.0000,0.0000,-0.0000,1412.0000,1019.0000,1500.0000,2000.0000
293863.7940,2.0000,2000.0000,1106.0000,2000.0000,-51.0000,-88.0000,27.0000,910.0000,-1072.0000,9857.0000,0.1978,0.1008,0.6517,-0.7252,211.0200,-25.2700,-70.9400,-16.4500,2.7400,11.0800,0.0000,0.0000,-0.0000,1412.0000,1019.0000,1500.0000,2000.0000
293880.8090,2.0000,2000.0000,1106.0000,2000.0000,-52.0000,-75.0000,32.0000,848.0000,-909.0000,8753.0000,0.2087,0.0942,0.6544,-0.7207,210.6600,-25.2100,-70.6700,-16.5700,3.4600,11.0900,0.0000,0.0000,-0.0000,1412.0000,1019.0000,1500.0000,2000.0000
293897.5420,2.0000,2000.0000,1106.0000,2000.0000,-45.0000,-78.0000,31.0000,814.0000,-785.0000,7800.0000,0.2190,0.0885,0.6566,-0.7163,210.3100,-25.1400,-70.4000,-16.6500,4.0300,11.1300,0.0000,0.0000,-0.0000,1412.0000,1019.0000,1500.0000,2000.0000
293914.5250,2.0000,2000.0000,1106.0000,2000.0000,-36.0000,-90.0000,33.0000,900.0000,-870.0000,7327.0000,0.2296,0.0826,0.6577,-0.7127,210.3100,-25.1400,-70.4000,-16.6500,4.0300,11.1300,0.0000,0.0000,-0.0000,1412.0000,1019.0000,1500.0000,2000.0000
293931.4620,2.0000,2000.0000,1106.0000,2000.0000,-35.0000,-109.0000,36.0000,818.0000,-767.0000,6501.0000,0.2422,0.0752,0.6574,-0.7096,209.9800,-25.0700,-70.1300,-16.7100,4.4600,11.1900,0.0000,0.0000,-0.0000,1412.0000,1019.0000,1500.0000,2000.0000
293948.1520,2.0000,2000.0000,1106.0000,2000.0000,-35.0000,-128.0000,39.0000,786.0000,-767.0000,6794.0000,0.2569,0.0661,0.6563,-0.7063,209.6200,-24.9800,-69.8600,-16.7700,4.9500,11.2500,0.0000,0.0000,-0.0000,1412.0000,1019.0000,1500.0000,2000.0000
293964.8350,2.0000,2000.0000,1106.0000,2000.0000,-37.0000,-150.0000,40.0000,865.0000,-763.0000,7903.0000,0.2739,0.0549,0.6542,-0.7029,209.2400,-24.8700,-69.5900,-16.8100,5.5500,11.3100,0.0000,0.0000,-0.0000,1412.0000,1019.0000,1500.0000,2000.0000
293981.9450,2.0000,2000.0000,1106.0000,2000.0000,-40.0000,-164.0000,43.0000,987.0000,-959.0000,8676.0000,0.2928,0.0418,0.6513,-0.6988,208.8800,-24.7500,-69.3200,-16.7800,6.1900,11.3500,0.0000,0.0000,-0.0000,1412.0000,1019.0000,1500.0000,2000.0000
293998.5170,2.0000,2000.0000,1106.0000,2000.0000,-30.0000,-182.0000,46.0000,1185.0000,-1115.0000,9592.0000,0.3130,0.0277,0.6470,-0.6948,208.5300,-24.6300,-69.0600,-16.7000,6.8700,11.3700,0.0000,0.0000,-0.0000,1412.0000,1019.0000,1500.0000,2000.0000
294015.2910,2.0000,2000.0000,1106.0000,2000.0000,-26.0000,-181.0000,46.0000,1293.0000,-984.0000,10311.0000,0.3339,0.0132,0.6410,-0.6910,208.5300,-24.6300,-69.0600,-16.7000,6.8700,11.3700,0.0000,0.0000,-0.0000,1412.0000,1019.0000,1500.0000,2000.0000
294031.9750,2.0000,2000.0000,1106.0000,2000.0000,-25.0000,-180.0000,48.0000,1369.0000,-809.0000,10838.0000,0.3544,-0.0011,0.6346,-0.6868,208.2000,-24.4900,-68.8000,-16.5400,7.5800,11.3500,0.0000,0.0000,-0.0000,1412.0000,1019.0000,1500.0000,2000.0000
294048.9090,2.0000,2000.0000,1106.0000,2000.0000,-30.0000,-177.0000,50.0000,1475.0000,-881.0000,11072.0000,0.3752,-0.0152,0.6277,-0.6819,207.8500,-24.3300,-68.5400,-16.3000,8.4300,11.3300,0.0000,0.0000,-0.0000,1412.0000,1019.0000,1500.0000,2000.0000
294065.8300,2.0000,2000.0000,1106.0000,2000.0000,-34.0000,-169.0000,51.0000,1457.0000,-937.0000,11221.0000,0.3953,-0.0290,0.6211,-0.6761,207.4900,-24.1500,-68.2800,-16.0100,9.3300,11.2800,0.0000,0.0000,-0.0000,1412.0000,1019.0000,1500.0000,2000.0000
294082.7930,2.0000,2000.0000,1106.0000,2000.0000,-52.0000,-146.0000,51.0000,1292.0000,-898.0000,11701.0000,0.4137,-0.0418,0.6162,-0.6689,207.1600,-23.9500,-68.0300,-15.6600,10.1500,11.1900,0.0000,0.0000,-0.0000,1412.0000,1019.0000,1500.0000,2000.0000
294099.4930,2.0000,2000.0000,1106.0000,2000.0000,-58.0000,-114.0000,54.0000,1186.0000,-931.0000,11652.0000,0.4288,-0.0521,0.6143,-0.6604,206.8400,-23.7400,-67.7900,-15.2400,10.9200,11.0700,0.0000,0.0000,-0.0000,1412.0000,1019.0000,1500.0000,2000.0000
294115.9700,2.0000,2000.0000,1106.0000,2000.0000,-56.0000,-83.0000,58.0000,1105.0000,-976.0000,10866.0000,0.4411,-0.0590,0.6142,-0.6516,206.8400,-23.7400,-67.7900,-15.2400,10.9200,11.0700,0.0000,0.0000,-0.0000,1412.0000,1019.0000,1500.0000,2000.0000
294133.0520,2.0000,2000.0000,1106.0000,2000.0000,-50.0000,-66.0000,59.0000,896.0000,-728.0000,9655.0000,0.4521,-0.0636,0.6150,-0.6429,206.5400,-23.5300,-67.5500,-14.8200,11.5700,10.9500,0.0000,0.0000,-0.0000,1412.0000,1019.0000,1500.0000,2000.0000
294149.9800,2.0000,2000.0000,1106.0000,2000.0000,-51.0000,-50.0000,60.0000,834.0000,-494.0000,8407.0000,0.4614,-0.0662,0.6167,-0.6343,206.2300,-23.2900,-67.3200,-14.4100,12.1600,10.8600,0.0000,0.0000,-0.0000,1412.0000,1019.0000,1500.0000,2000.0000
294166.7730,2.0000,2000.0000,1106.0000,2000.0000,-55.0000,-44.0000,60.0000,770.0000,-379.0000,7304.0000,0.4697,-0.0678,0.6193,-0.6255,205.9300,-23.0300,-67.1000,-14.0400,12.6500,10.8100,0.0000,0.0000,-0.0000,1412.0000,1019.0000,1500.0000,2000.0000
294183.7800,2.0000,2000.0000,1106.0000,2000.0000,-60.0000,-54.0000,59.0000,887.0000,-505.0000,6648.0000,0.4781,-0.0699,0.6220,-0.6161,205.6400,-22.7700,-66.8800,-13.7300,13.0100,10.8000,0.0000,0.0000,-0.0000,1412.0000,1019.0000,1500.0000,2000.0000
294200.6860,2.0000,2000.0000,1106.0000,2000.0000,-59.0000,-74.0000,55.0000,897.0000,-448.0000,5899.0000,0.4875,-0.0738,0.6236,-0.6066,205.3600,-22.5200,-66.6600,-13.5000,13.2700,10.8100,0.0000,0.0000,-0.0000,1412.0000,1019.0000,1500.0000,2000.0000
294217.2660,2.0000,2000.0000,1106.0000,2000.0000,-60.0000,-102.0000,50.0000,869.0000,-378.0000,5831.0000,0.4985,-0.0799,0.6231,-0.5974,205.3600,-22.5200,-66.6600,-13.5000,13.2700,10.8100,0.0000,0.0000,-0.0000,1412.0000,1019.0000,1500.0000,2000.0000
294234.2840,2.0000,2000.0000,1106.0000,2000.0000,-64.0000,-123.0000,42.0000,751.0000,-180.0000,6141.0000,0.5112,-0.0893,0.6209,-0.5876,205.1000,-22.2700,-66.4500,-13.2800,13.4600,10.8600,0.0000,0.0000,-0.0000,1412.0000,1019.0000,1500.0000,2000.0000
294250.9210,2.0000,2000.0000,1106.0000,2000.0000,-67.0000,-143.0000,35.0000,811.0000,-155.0000,7054.0000,0.5249,-0.1015,0.6170,-0.5775,204.8200,-21.9900,-66.2400,-12.9200,13.7500,10.8900,0.0000,0.0000,-0.0000,1412.0000,1019.0000,1500.0000,2000.0000
294267.8740,2.0000,2000.0000,1106.0000,2000.0000,-65.0000,-156.0000,24.0000,881.0000,-168.0000,8150.0000,0.5391,-0.1159,0.6117,-0.5672,204.5600,-21.6900,-66.0400,-12.4400,14.1200,10.9100,0.0000,0.0000,-0.0000,1412.0000,1019.0000,1500.0000,2000.0000
294284.7410,2.0000,2000.0000,1106.0000,2000.0000,-67.0000,-159.0000,12.0000,916.0000,-256.0000,8010.0000,0.5526,-0.1317,0.6051,-0.5578,204.3100,-21.4000,-65.8400,-11.8900,14.4800,10.8900,0.0000,0.0000,-0.0000,1412.0000,1019.0000,1500.0000,2000.0000
294301.6980,2.0000,2000.0000,1106.0000,2000.0000,-62.0000,-176.0000,3.0000,917.0000,-131.0000,8341.0000,0.5658,-0.1491,0.5970,-0.5489,204.0800,-21.1200,-65.6400,-11.3500,14.7800,10.8700,0.0000,0.0000,-0.0000,1412.0000,1019.0000,1500.0000,2000.0000
294318.5400,2.0000,2000.0000,1106.0000,2000.0000,-61.0000,-174.0000,-4.0000,1048.0000,-264.0000,9159.0000,0.5787,-0.1675,0.5873,-0.5405,204.0800,-21.1200,-65.6400,-11.3500,14.7800,10.8700,0.0000,0.0000,-0.0000,1412.0000,1019.0000,1500.0000,2000.0000
294335.4880,2.0000,2000.0000,1106.0000,2000.0000,-63.0000,-174.0000,-10.0000,1267.0000,-518.0000,10173.0000,0.5905,-0.1865,0.5774,-0.5321,203.8700,-20.8300,-65.4500,-10.7400,15.0500,10.8300,0.0000,0.0000,-0.0000,1412.0000,1019.0000,1500.0000,2000.0000
294352.3020,2.0000,2000.0000,1106.0000,2000.0000,-57.0000,-167.0000,-13.0000,1378.0000,-588.0000,10360.0000,0.6016,-0.2053,0.5672,-0.5237,203.6600,-20.5200,-65.2600,-9.9200,15.4500,10.7400,0.0000,0.0000,-0.0000,1412.0000,1019.0000,1500.0000,2000.0000
294369.0590,2.0000,2000.0000,1106.0000,2000.0000,-53.0000,-158.0000,-15.0000,1387.0000,-771.0000,10797.0000,0.6114,-0.2232,0.5569,-0.5160,203.4700,-20.1900,-65.0800,-9.0000,15.8800,10.6200,0.0000,0.0000,-0.0000,1412.0000,1019.0000,1500.0000,2000.0000
294386.0630,2.0000,2000.0000,1106.0000,2000.0000,-43.0000,-150.0000,-15.0000,1339.0000,-880.0000,10741.0000,0.6205,-0.2397,0.5463,-0.5089,203.3100,-19.8600,-64.9000,-8.1100,16.2300,10.4700,0.0000,0.0000,-0.0000,1412.0000,1019.0000,1500.0000,2000.0000
294402.9810,2.0000,2000.0000,1106.0000,2000.0000,-27.0000,-137.0000,-9.0000,1179.0000,-925.0000,10647.0000,0.6291,-0.2540,0.5356,-0.5029,203.1700,-19.5400,-64.7300,-7.2500,16.5000,10.3100,0.0000,0.0000,-0.0000,1412.0000,1019.0000,1500.0000,2000.0000
294419.7140,2.0000,2000.0000,1106.0000,2000.0000,-15.0000,-117.0000,0.0000,1072.0000,-1076.0000,10511.0000,0.6373,-0.2647,0.5253,-0.4978,203.1700,-19.5400,-64.7300,-7.2500,16.5000,10.3100,0.0000,0.0000,-0.0000,1412.0000,1019.0000,1500.0000,2000.0000
294436.5870,2.0000,2000.0000,1106.0000,2000.0000,-18.0000,-94.0000,9.0000,894.0000,-975.0000,9616.0000,0.6447,-0.2730,0.5168,-0.4927,203.0400,-19.2200,-64.5600,-6.4400,16.6900,10.1100,0.0000,0.0000,-0.0000,1412.0000,1019.0000,1500.0000,2000.0000
294453.5530,2.0000,2000.0000,1106.0000,2000.0000,-22.0000,-76.0000,15.0000,971.0000,-985.0000,9018.0000,0.6509,-0.2797,0.5108,-0.4870,202.9400,-18.8800,-64.3900,-5.5200,16.9400,9.9200,0.0000,0.0000,-0.0000,1412.0000,1019.0000,1500.0000,2000.0000
294470.4860,2.0000,2000.0000,1106.0000,2000.0000,-33.0000,-65.0000,18.0000,776.0000,-674.0000,7457.0000,0.6557,-0.2857,0.5070,-0.4810,202.8500,-18.5100,-64.2300,-4.5700,17.1900,9.7400,0.0000,0.0000,-0.0000,1412.0000,1019.0000,1500.0000,2000.0000
294487.4500,2.0000,2000.0000,1106.0000,2000.0000,-29.0000,-74.0000,22.0000,736.0000,-645.0000,6512.0000,0.6605,-0.2917,0.5037,-0.4743,202.7900,-18.1500,-64.0800,-3.8300,17.3500,9.6200,0.0000,0.0000,-0.0000,1412.0000,1019.0000,1500.0000,2000.0000
294504.2460,2.0000,2000.0000,1106.0000,2000.0000,-31.0000,-87.0000,27.0000,866.0000,-934.0000,6629.0000,0.6663,-0.2979,0.4993,-0.4669,202.7400,-17.8100,-63.9400,-3.2000,17.4700,9.5200,0.0000,0.0000,-0.0000,1412.0000,1019.0000,1500.0000,2000.0000
294521.3410,2.0000,2000.0000,1106.0000,2000.0000,-37.0000,-106.0000,31.0000,878.0000,-878.0000,6552.0000,0.6734,-0.3052,0.4937,-0.4579,202.7400,-17.8100,-63.9400,-3.2000,17.4700,9.5200,0.0000,0.0000,-0.0000,1412.0000,1019.0000,1500.0000,2000.0000
294538.3690,2.0000,2000.0000,1106.0000,2000.0000,-45.0000,-128.0000,35.0000,846.0000,-920.0000,6562.0000,0.6819,-0.3144,0.4865,-0.4467,202.7100,-17.4700,-63.8000,-2.5900,17.5700,9.4000,0.0000,0.0000,-0.0000,1412.0000,1019.0000,1500.0000,2000.0000
294555.0370,2.0000,2000.0000,1106.0000,2000.0000,-48.0000,-149.0000,39.0000,784.0000,-660.0000,6469.0000,0.6917,-0.3251,0.4775,-0.4334,202.7000,-17.1000,-63.6700,-1.7500,17.6700,9.2900,0.0000,0.0000,-0.0000,1412.0000,1019.0000,1500.0000,2000.0000
294572.0930,2.0000,2000.0000,1106.0000,2000.0000,-51.0000,-163.0000,40.0000,867.0000,-518.0000,7194.0000,0.7024,-0.3373,0.4666,-0.4185,202.7100,-16.7200,-63.5400,-0.8100,17.7500,9.1900,0.0000,0.0000,-0.0000,1412.0000,1019.0000,1500.0000,2000.0000
294588.7200,2.0000,2000.0000,1106.0000,2000.0000,-56.0000,-178.0000,36.0000,1009.0000,-561.0000,8145.0000,0.7131,-0.3503,0.4545,-0.4029,202.7400,-16.3500,-63.4100,0.1400,17.7700,9.0700,0.0000,0.0000,-0.0000,1412.0000,1019.0000,1500.0000,2000.0000
294605.3730,2.0000,2000.0000,1106.0000,2000.0000,-53.0000,-179.0000,35.0000,1139.0000,-764.0000,8897.0000,0.7236,-0.3636,0.4410,-0.3869,202.7900,-15.9900,-63.2900,1.1100,17.7400,8.9300,0.0000,0.0000,-0.0000,1412.0000,1019.0000,1500.0000,2000.0000
