t_ms,msp,motor,servo0,servo1,gyro_p,gyro_q,gyro_r,acc_x,acc_y,acc_z,qw,qx,qy,qz,pos_n,pos_e,pos_d,vel_n,vel_e,vel_d,tgtpos_n,tgtpos_e,tgtpos_d,rcData0,rcData1,rcData2,rcData3
183742.3550,3.0000,1691.0000,1445.0000,1513.0000,7.0000,8.0000,1.0000,393.0000,-499.0000,1852.0000,0.1920,-0.1286,-0.0637,0.9708,171.2600,-36.9500,-92.0800,-18.5000,-3.8300,4.0400,0.0000,0.0000,-0.0000,1500.0000,1498.0000,1500.0000,1708.0000
183758.9840,3.0000,1691.0000,1450.0000,1516.0000,13.0000,5.0000,6.0000,409.0000,-612.0000,1688.0000,0.1915,-0.1292,-0.0620,0.9710,170.8200,-37.0100,-92.0100,-18.6600,-3.8100,4.0700,0.0000,0.0000,-0.0000,1500.0000,1500.0000,1500.0000,1708.0000
183775.6670,3.0000,1690.0000,1454.0000,1518.0000,18.0000,3.0000,10.0000,405.0000,-569.0000,1551.0000,0.1906,-0.1292,-0.0594,0.9713,170.3900,-37.0700,-91.9500,-18.7900,-3.7900,4.1000,0.0000,0.0000,-0.0000,1500.0000,1500.0000,1500.0000,1707.0000
183792.2120,3.0000,1690.0000,1456.0000,1520.0000,22.0000,3.0000,14.0000,391.0000,-479.0000,1584.0000,0.1891,-0.1291,-0.0569,0.9718,169.9600,-37.1300,-91.8800,-18.9000,-3.7700,4.1400,0.0000,0.0000,-0.0000,1500.0000,1500.0000,1500.0000,1707.0000
183809.0590,3.0000,1690.0000,1454.0000,1518.0000,18.0000,2.0000,17.0000,353.0000,-476.0000,1459.0000,0.1873,-0.1286,-0.0542,0.9723,169.9600,-37.1300,-91.8800,-18.9000,-3.7700,4.1400,0.0000,0.0000,-0.0000,1500.0000,1498.0000,1500.0000,1707.0000
183825.5380,3.0000,1690.0000,1454.0000,1518.0000,18.0000,2.0000,18.0000,400.0000,-558.0000,1470.0000,0.1851,-0.1285,-0.0520,0.9729,169.5500,-37.1800,-91.8200,-18.9900,-3.7500,4.1900,0.0000,0.0000,-0.0000,1500.0000,1498.0000,1500.0000,1707.0000
183842.1750,3.0000,1690.0000,1454.0000,1518.0000,17.0000,2.0000,20.0000,324.0000,-284.0000,1427.0000,0.1827,-0.1287,-0.0492,0.9735,169.1200,-37.2400,-91.7500,-19.0900,-3.7400,4.2400,0.0000,0.0000,-0.0000,1500.0000,1500.0000,1500.0000,1708.0000
183858.9690,3.0000,1691.0000,1454.0000,1518.0000,18.0000,3.0000,18.0000,327.0000,-208.0000,1414.0000,0.1804,-0.1291,-0.0468,0.9740,168.6700,-37.3000,-91.6800,-19.2200,-3.7200,4.3000,0.0000,0.0000,-0.0000,1500.0000,1498.0000,1500.0000,1708.0000
183875.9530,3.0000,1691.0000,1454.0000,1520.0000,18.0000,3.0000,16.0000,294.0000,-124.0000,1376.0000,0.1783,-0.1294,-0.0446,0.9744,168.2300,-37.3500,-91.6100,-19.3400,-3.6800,4.3600,0.0000,0.0000,-0.0000,1500.0000,1498.0000,1500.0000,1708.0000
183892.6620,3.0000,1689.0000,1453.0000,1519.0000,16.0000,2.0000,13.0000,297.0000,36.0000,1458.0000,0.1767,-0.1295,-0.0422,0.9748,167.8000,-37.4100,-91.5400,-19.4300,-3.6400,4.4200,0.0000,0.0000,-0.0000,1498.0000,1497.0000,1500.0000,1706.0000
183909.7620,3.0000,1691.0000,1452.0000,1516.0000,13.0000,3.0000,9.0000,294.0000,-31.0000,1521.0000,0.1754,-0.1296,-0.0404,0.9751,167.8000,-37.4100,-91.5400,-19.4300,-3.6400,4.4200,0.0000,0.0000,-0.0000,1500.0000,1498.0000,1500.0000,1710.0000
183926.3410,3.0000,1693.0000,1451.0000,1515.0000,11.0000,3.0000,5.0000,218.0000,48.0000,1723.0000,0.1746,-0.1300,-0.0387,0.9753,167.3600,-37.4600,-91.4600,-19.5500,-3.6000,4.4800,0.0000,0.0000,-0.0000,1500.0000,1498.0000,1500.0000,1710.0000
183942.8620,3.0000,1693.0000,1449.0000,1513.0000,8.0000,2.0000,0.0000,277.0000,-88.0000,1838.0000,0.1744,-0.1302,-0.0382,0.9753,166.9000,-37.5200,-91.3900,-19.6800,-3.5700,4.5100,0.0000,0.0000,-0.0000,1500.0000,1498.0000,1500.0000,1710.0000
183959.5830,3.0000,1691.0000,1447.0000,1513.0000,3.0000,3.0000,-6.0000,312.0000,-176.0000,1735.0000,0.1750,-0.1303,-0.0375,0.9752,166.4400,-37.5800,-91.3200,-19.7900,-3.5500,4.5300,0.0000,0.0000,-0.0000,1500.0000,1500.0000,1500.0000,1708.0000
183976.0540,3.0000,1691.0000,1448.0000,1512.0000,3.0000,2.0000,-10.0000,310.0000,-95.0000,1604.0000,0.1763,-0.1301,-0.0372,0.9750,166.0000,-37.6300,-91.2400,-19.8800,-3.5300,4.5700,0.0000,0.0000,-0.0000,1500.0000,1498.0000,1500.0000,1708.0000
183992.7740,3.0000,1691.0000,1446.0000,1512.0000,1.0000,3.0000,-13.0000,284.0000,-97.0000,1614.0000,0.1782,-0.1300,-0.0369,0.9747,165.5700,-37.6800,-91.1700,-19.9600,-3.5100,4.6100,0.0000,0.0000,-0.0000,1500.0000,1498.0000,1500.0000,1708.0000
184009.4530,3.0000,1691.0000,1450.0000,1514.0000,8.0000,2.0000,-16.0000,310.0000,-364.0000,1623.0000,0.1802,-0.1301,-0.0365,0.9743,165.5700,-37.6800,-91.1700,-19.9600,-3.5100,4.6100,0.0000,0.0000,-0.0000,1500.0000,1498.0000,1500.0000,1708.0000
184026.1760,3.0000,1691.0000,1448.0000,1516.0000,6.0000,5.0000,-17.0000,341.0000,-416.0000,1843.0000,0.1826,-0.1306,-0.0352,0.9738,165.1100,-37.7300,-91.0900,-20.0500,-3.5200,4.6500,0.0000,0.0000,-0.0000,1500.0000,1498.0000,1500.0000,1708.0000
184043.1260,3.0000,1691.0000,1449.0000,1517.0000,8.0000,5.0000,-17.0000,324.0000,-330.0000,1950.0000,0.1851,-0.1308,-0.0340,0.9734,164.6400,-37.7900,-91.0100,-20.1600,-3.5400,4.6800,0.0000,0.0000,-0.0000,1500.0000,1498.0000,1500.0000,1708.0000
184059.7570,3.0000,1691.0000,1447.0000,1517.0000,7.0000,7.0000,-14.0000,274.0000,-261.0000,1853.0000,0.1875,-0.1312,-0.0329,0.9729,164.1800,-37.8500,-90.9300,-20.2500,-3.5600,4.7000,0.0000,0.0000,-0.0000,1500.0000,1500.0000,1500.0000,1708.0000
184076.5180,3.0000,1691.0000,1446.0000,1516.0000,3.0000,6.0000,-14.0000,227.0000,-361.0000,1780.0000,0.1896,-0.1316,-0.0315,0.9725,163.7300,-37.9000,-90.8500,-20.3200,-3.5700,4.7300,0.0000,0.0000,-0.0000,1500.0000,1498.0000,1500.0000,1708.0000
184093.0830,3.0000,1691.0000,1446.0000,1516.0000,4.0000,6.0000,-10.0000,273.0000,-389.0000,1984.0000,0.1914,-0.1320,-0.0305,0.9721,163.7300,-37.9000,-90.8500,-20.3200,-3.5700,4.7300,0.0000,0.0000,-0.0000,1500.0000,1498.0000,1500.0000,1708.0000
184109.7650,3.0000,1689.0000,1448.0000,1518.0000,8.0000,6.0000,-7.0000,289.0000,-612.0000,1881.0000,0.1926,-0.1324,-0.0295,0.9719,163.3000,-37.9500,-90.7700,-20.3700,-3.5800,4.7500,0.0000,0.0000,-0.0000,1500.0000,1500.0000,1500.0000,1706.0000
184126.3420,3.0000,1689.0000,1448.0000,1518.0000,7.0000,5.0000,-2.0000,308.0000,-617.0000,1992.0000,0.1933,-0.1333,-0.0283,0.9716,162.8500,-38.0100,-90.6900,-20.4600,-3.6100,4.7600,0.0000,0.0000,-0.0000,1500.0000,1498.0000,1500.0000,1706.0000
184143.0060,3.0000,1690.0000,1447.0000,1517.0000,5.0000,5.0000,2.0000,223.0000,-375.0000,2188.0000,0.1933,-0.1338,-0.0271,0.9716,162.3800,-38.0700,-90.6100,-20.5500,-3.6500,4.7700,0.0000,0.0000,-0.0000,1500.0000,1498.0000,1500.0000,1710.0000
184159.6680,3.0000,1693.0000,1449.0000,1519.0000,9.0000,5.0000,9.0000,211.0000,-349.0000,2377.0000,0.1925,-0.1344,-0.0262,0.9717,161.9200,-38.1300,-90.5300,-20.6400,-3.6600,4.7600,0.0000,0.0000,-0.0000,1500.0000,1498.0000,1500.0000,1710.0000
184176.3940,3.0000,1693.0000,1450.0000,1518.0000,9.0000,4.0000,12.0000,196.0000,-446.0000,2254.0000,0.1912,-0.1348,-0.0248,0.9719,161.4700,-38.1800,-90.4500,-20.7100,-3.6600,4.7300,0.0000,0.0000,-0.0000,1500.0000,1500.0000,1500.0000,1710.0000
184193.0560,3.0000,1691.0000,1452.0000,1518.0000,11.0000,2.0000,12.0000,190.0000,-360.0000,2015.0000,0.1897,-0.1349,-0.0231,0.9723,161.4700,-38.1800,-90.4500,-20.7100,-3.6600,4.7300,0.0000,0.0000,-0.0000,1500.0000,1498.0000,1500.0000,1708.0000
184209.7670,3.0000,1691.0000,1452.0000,1518.0000,11.0000,2.0000,13.0000,208.0000,-277.0000,1946.0000,0.1880,-0.1347,-0.0215,0.9727,161.0300,-38.2400,-90.3600,-20.7600,-3.6700,4.7300,0.0000,0.0000,-0.0000,1500.0000,1500.0000,1500.0000,1708.0000
184226.5020,3.0000,1693.0000,1450.0000,1516.0000,7.0000,2.0000,16.0000,195.0000,-363.0000,2016.0000,0.1862,-0.1350,-0.0203,0.9730,160.5700,-38.3000,-90.2800,-20.8400,-3.6900,4.7400,0.0000,0.0000,-0.0000,1500.0000,1498.0000,1500.0000,1710.0000
184243.1610,3.0000,1690.0000,1452.0000,1518.0000,9.0000,2.0000,19.0000,148.0000,-509.0000,1915.0000,0.1839,-0.1350,-0.0186,0.9734,160.1000,-38.3600,-90.2000,-20.9200,-3.7100,4.7500,0.0000,0.0000,-0.0000,1500.0000,1500.0000,1500.0000,1707.0000
184259.8020,3.0000,1693.0000,1446.0000,1516.0000,4.0000,4.0000,20.0000,149.0000,-446.0000,1729.0000,0.1814,-0.1355,-0.0180,0.9739,159.6400,-38.4200,-90.1100,-20.9800,-3.7400,4.7700,0.0000,0.0000,-0.0000,1500.0000,1500.0000,1500.0000,1710.0000
184276.5880,3.0000,1691.0000,1446.0000,1514.0000,2.0000,2.0000,19.0000,150.0000,-276.0000,1641.0000,0.1787,-0.1359,-0.0181,0.9743,159.1900,-38.4800,-90.0300,-21.0200,-3.7600,4.7900,0.0000,0.0000,-0.0000,1498.0000,1500.0000,1500.0000,1708.0000
184293.3930,3.0000,1691.0000,1448.0000,1516.0000,5.0000,2.0000,20.0000,203.0000,-326.0000,1571.0000,0.1762,-0.1361,-0.0182,0.9747,159.1900,-38.4800,-90.0300,-21.0200,-3.7600,4.7900,0.0000,0.0000,-0.0000,1500.0000,1500.0000,1500.0000,1708.0000
184310.2180,3.0000,1692.0000,1435.0000,1503.0000,-21.0000,2.0000,15.0000,221.0000,-380.0000,1612.0000,0.1737,-0.1366,-0.0195,0.9751,158.7600,-38.5300,-89.9500,-21.0500,-3.7700,4.8400,0.0000,0.0000,-0.0000,1500.0000,1500.0000,1500.0000,1710.0000
184326.7610,3.0000,1691.0000,1432.0000,1500.0000,-23.0000,3.0000,11.0000,164.0000,-171.0000,1802.0000,0.1713,-0.1378,-0.0223,0.9753,158.3000,-38.6000,-89.8600,-21.1200,-3.8000,4.8900,0.0000,0.0000,-0.0000,1500.0000,1500.0000,1500.0000,1708.0000
184343.4420,3.0000,1690.0000,1436.0000,1504.0000,-17.0000,3.0000,8.0000,148.0000,-136.0000,1880.0000,0.1697,-0.1388,-0.0255,0.9753,157.8200,-38.6600,-89.7700,-21.2100,-3.8200,4.9200,0.0000,0.0000,-0.0000,1498.0000,1500.0000,1500.0000,1707.0000
184360.1540,3.0000,1690.0000,1438.0000,1508.0000,-12.0000,4.0000,0.0000,208.0000,-211.0000,1974.0000,0.1689,-0.1399,-0.0282,0.9753,157.3600,-38.7300,-89.6900,-21.2800,-3.8400,4.9300,0.0000,0.0000,-0.0000,1500.0000,1500.0000,1500.0000,1708.0000
184376.7530,3.0000,1690.0000,1441.0000,1511.0000,-10.0000,3.0000,-9.0000,101.0000,80.0000,1947.0000,0.1695,-0.1403,-0.0296,0.9750,157.3600,-38.7300,-89.6900,-21.2800,-3.8400,4.9300,0.0000,0.0000,-0.0000,1500.0000,1498.0000,1500.0000,1706.0000
184393.4690,3.0000,1689.0000,1446.0000,1514.0000,-2.0000,3.0000,-16.0000,87.0000,97.0000,1841.0000,0.1713,-0.1406,-0.0303,0.9747,156.9100,-38.7900,-89.6000,-21.3400,-3.8400,4.9400,0.0000,0.0000,-0.0000,1500.0000,1498.0000,1500.0000,1706.0000
184410.3410,3.0000,1691.0000,1447.0000,1515.0000,1.0000,3.0000,-19.0000,77.0000,-6.0000,1692.0000,0.1740,-0.1407,-0.0302,0.9742,156.4700,-38.8500,-89.5100,-21.3800,-3.8300,4.9500,0.0000,0.0000,-0.0000,1500.0000,1500.0000,1500.0000,1708.0000
184427.0730,3.0000,1693.0000,1446.0000,1516.0000,4.0000,3.0000,-23.0000,66.0000,-90.0000,1528.0000,0.1772,-0.1411,-0.0303,0.9735,156.0000,-38.9200,-89.4200,-21.4400,-3.8300,4.9900,0.0000,0.0000,-0.0000,1500.0000,1500.0000,1500.0000,1710.0000
184443.8570,3.0000,1690.0000,1449.0000,1517.0000,7.0000,2.0000,-28.0000,29.0000,-157.0000,1438.0000,0.1809,-0.1411,-0.0292,0.9729,155.5200,-38.9800,-89.3300,-21.5000,-3.8400,5.0300,0.0000,0.0000,-0.0000,1500.0000,1498.0000,1500.0000,1707.0000
184460.4510,3.0000,1689.0000,1447.0000,1517.0000,5.0000,3.0000,-28.0000,20.0000,-166.0000,1626.0000,0.1847,-0.1410,-0.0280,0.9722,155.0700,-39.0500,-89.2400,-21.5400,-3.8500,5.0900,0.0000,0.0000,-0.0000,1498.0000,1500.0000,1500.0000,1706.0000
184477.0390,3.0000,1689.0000,1446.0000,1518.0000,5.0000,5.0000,-27.0000,57.0000,-166.0000,1820.0000,0.1886,-0.1412,-0.0270,0.9715,155.0700,-39.0500,-89.2400,-21.5400,-3.8500,5.0900,0.0000,0.0000,-0.0000,1498.0000,1500.0000,1500.0000,1706.0000
184493.5800,3.0000,1691.0000,1452.0000,1524.0000,16.0000,5.0000,-23.0000,97.0000,-481.0000,1573.0000,0.1921,-0.1411,-0.0252,0.9709,154.6200,-39.1100,-89.1500,-21.5700,-3.8600,5.1200,0.0000,0.0000,-0.0000,1500.0000,1498.0000,1500.0000,1708.0000
184510.3510,2.0000,1997.0000,1000.0000,1856.0000,21.0000,7.0000,-21.0000,94.0000,-730.0000,1219.0000,0.1955,-0.1409,-0.0213,0.9703,154.1900,-39.1800,-89.0600,-21.5700,-3.9000,5.1600,0.0000,0.0000,-0.0000,1590.0000,1056.0000,1500.0000,1999.0000
184527.4860,2.0000,1998.0000,1000.0000,1856.0000,14.0000,-3.0000,-16.0000,124.0000,-665.0000,1036.0000,0.1982,-0.1412,-0.0183,0.9698,153.7200,-39.2500,-88.9700,-21.6100,-3.9700,5.2300,0.0000,0.0000,-0.0000,1590.0000,1056.0000,1500.0000,1999.0000
184544.3080,2.0000,1998.0000,1000.0000,1856.0000,10.0000,-33.0000,-16.0000,213.0000,-499.0000,410.0000,0.2006,-0.1388,-0.0167,0.9696,153.2500,-39.3200,-88.8800,-21.6400,-4.0300,5.3300,0.0000,0.0000,-0.0000,1590.0000,1056.0000,1500.0000,1999.0000
184561.0570,2.0000,1998.0000,1000.0000,1856.0000,6.0000,-83.0000,-15.0000,229.0000,-557.0000,150.0000,0.2028,-0.1305,-0.0174,0.9703,152.7800,-39.3900,-88.7800,-21.6600,-4.0800,5.4900,0.0000,0.0000,-0.0000,1590.0000,1056.0000,1500.0000,1999.0000
184578.0520,2.0000,1998.0000,1000.0000,1856.0000,19.0000,-130.0000,-17.0000,112.0000,-726.0000,901.0000,0.2050,-0.1154,-0.0189,0.9718,152.7800,-39.3900,-88.7800,-21.6600,-4.0800,5.4900,0.0000,0.0000,-0.0000,1590.0000,1056.0000,1500.0000,1999.0000
184594.5930,2.0000,2000.0000,1000.0000,1662.0000,27.0000,-180.0000,-19.0000,242.0000,-816.0000,3617.0000,0.2074,-0.0923,-0.0207,0.9737,152.3400,-39.4500,-88.6800,-21.6400,-4.1300,5.6600,0.0000,0.0000,-0.0000,1766.0000,1073.0000,1500.0000,2000.0000
184611.1780,2.0000,2000.0000,1000.0000,1662.0000,39.0000,-210.0000,-19.0000,598.0000,-942.0000,6550.0000,0.2100,-0.0630,-0.0223,0.9754,151.9100,-39.5200,-88.5800,-21.6500,-4.1900,5.6100,0.0000,0.0000,-0.0000,1766.0000,1073.0000,1500.0000,2000.0000
184628.0250,2.0000,2000.0000,1000.0000,1662.0000,53.0000,-218.0000,-20.0000,1253.0000,-1003.0000,9513.0000,0.2127,-0.0309,-0.0227,0.9764,151.4100,-39.5900,-88.4700,-21.7800,-4.2800,5.2500,0.0000,0.0000,-0.0000,1766.0000,1073.0000,1500.0000,2000.0000
184644.9880,2.0000,2000.0000,1000.0000,1662.0000,62.0000,-214.0000,-18.0000,1583.0000,-1253.0000,12073.0000,0.2149,0.0024,-0.0212,0.9764,150.9300,-39.6700,-88.3700,-21.9200,-4.3800,4.5700,0.0000,0.0000,-0.0000,1766.0000,1073.0000,1500.0000,2000.0000
184661.8390,2.0000,2000.0000,1000.0000,1662.0000,64.0000,-199.0000,-16.0000,1727.0000,-1457.0000,13263.0000,0.2166,0.0342,-0.0184,0.9755,150.9300,-39.6700,-88.3700,-21.9200,-4.3800,4.5700,0.0000,0.0000,-0.0000,1766.0000,1073.0000,1500.0000,2000.0000
184678.8080,2.0000,2000.0000,1000.0000,1662.0000,56.0000,-177.0000,-18.0000,1740.0000,-1425.0000,13908.0000,0.2182,0.0633,-0.0160,0.9737,150.4500,-39.7500,-88.2800,-21.9600,-4.4800,3.6300,0.0000,0.0000,-0.0000,1766.0000,1073.0000,1500.0000,2000.0000
184695.5870,2.0000,2000.0000,1457.0000,2000.0000,47.0000,-150.0000,-21.0000,1658.0000,-1498.0000,14017.0000,0.2202,0.0880,-0.0136,0.9714,150.0100,-39.8200,-88.2000,-21.8900,-4.5700,2.5900,0.0000,0.0000,-0.0000,1088.0000,1046.0000,1500.0000,2000.0000
184712.5890,2.0000,2000.0000,1458.0000,2000.0000,34.0000,-115.0000,-23.0000,1510.0000,-1594.0000,13546.0000,0.2227,0.1082,-0.0118,0.9688,149.5900,-39.9000,-88.1500,-21.7200,-4.6300,1.5100,0.0000,0.0000,-0.0000,1088.0000,1046.0000,1500.0000,2000.0000
184729.3220,2.0000,2000.0000,1458.0000,2000.0000,30.0000,-81.0000,-25.0000,1329.0000,-1465.0000,12328.0000,0.2257,0.1232,-0.0100,0.9663,149.1200,-39.9900,-88.1100,-21.5500,-4.7300,0.4500,0.0000,0.0000,-0.0000,1088.0000,1046.0000,1500.0000,2000.0000
184746.2510,2.0000,2000.0000,1458.0000,2000.0000,2.0000,-62.0000,-21.0000,1218.0000,-1254.0000,11163.0000,0.2288,0.1340,-0.0096,0.9642,148.6500,-40.0800,-88.0900,-21.3800,-4.8100,-0.4500,0.0000,0.0000,-0.0000,1088.0000,1046.0000,1500.0000,2000.0000
184762.8850,2.0000,2000.0000,1458.0000,2000.0000,-44.0000,-48.0000,-15.0000,1064.0000,-930.0000,10344.0000,0.2319,0.1410,-0.0141,0.9624,148.6500,-40.0800,-88.0900,-21.3800,-4.8100,-0.4500,0.0000,0.0000,-0.0000,1088.0000,1046.0000,1500.0000,2000.0000
184779.7240,2.0000,2000.0000,1458.0000,2000.0000,-81.0000,-44.0000,-3.0000,1004.0000,-903.0000,9162.0000,0.2345,0.1452,-0.0247,0.9609,148.2100,-40.1700,-88.0900,-21.2100,-4.8500,-1.2600,0.0000,0.0000,-0.0000,1088.0000,1046.0000,1500.0000,2000.0000
184796.5370,2.0000,2000.0000,1000.0000,1606.0000,-103.0000,-48.0000,9.0000,1098.0000,-1068.0000,8366.0000,0.2360,0.1484,-0.0395,0.9595,147.7800,-40.2600,-88.1100,-21.0500,-4.8500,-1.9400,0.0000,0.0000,-0.0000,1815.0000,1080.0000,1500.0000,2000.0000
184813.2610,2.0000,2000.0000,1000.0000,1606.0000,-101.0000,-57.0000,15.0000,1171.0000,-887.0000,7709.0000,0.2364,0.1519,-0.0564,0.9580,147.3700,-40.3400,-88.1300,-20.9200,-4.8500,-2.5200,0.0000,0.0000,-0.0000,1815.0000,1080.0000,1500.0000,2000.0000
184830.0170,2.0000,2000.0000,1000.0000,1606.0000,-67.0000,-74.0000,13.0000,1026.0000,-813.0000,7292.0000,0.2361,0.1581,-0.0711,0.9561,146.9100,-40.4300,-88.1700,-20.8600,-4.8100,-3.0300,0.0000,0.0000,-0.0000,1815.0000,1080.0000,1500.0000,2000.0000
184846.8480,2.0000,2000.0000,1000.0000,1606.0000,-16.0000,-96.0000,0.0000,848.0000,-937.0000,6992.0000,0.2355,0.1688,-0.0799,0.9538,146.4600,-40.5300,-88.2100,-20.7800,-4.7400,-3.4800,0.0000,0.0000,-0.0000,1815.0000,1080.0000,1500.0000,2000.0000
184863.5490,2.0000,2000.0000,1000.0000,1606.0000,28.0000,-116.0000,-10.0000,716.0000,-814.0000,6992.0000,0.2349,0.1840,-0.0822,0.9509,146.4600,-40.5300,-88.2100,-20.7800,-4.7400,-3.4800,0.0000,0.0000,-0.0000,1815.0000,1080.0000,1500.0000,2000.0000
184880.4540,2.0000,2000.0000,1067.0000,1927.0000,52.0000,-125.0000,-19.0000,1095.0000,-867.0000,7752.0000,0.2347,0.2026,-0.0802,0.9473,146.0200,-40.6100,-88.2500,-20.6600,-4.6500,-3.9000,0.0000,0.0000,-0.0000,1175.0000,1058.0000,1500.0000,2000.0000
184897.4190,2.0000,2000.0000,1383.0000,2000.0000,65.0000,-137.0000,-27.0000,1256.0000,-808.0000,8453.0000,0.2349,0.2232,-0.0757,0.9430,145.6100,-40.6900,-88.3100,-20.5200,-4.5600,-4.3500,0.0000,0.0000,-0.0000,1175.0000,1058.0000,1500.0000,2000.0000
184914.4640,2.0000,2000.0000,1383.0000,2000.0000,48.0000,-139.0000,-27.0000,1255.0000,-819.0000,8859.0000,0.2356,0.2451,-0.0714,0.9377,145.2100,-40.7700,-88.3700,-20.3200,-4.4600,-4.8900,0.0000,0.0000,-0.0000,1175.0000,1058.0000,1500.0000,2000.0000
184931.2730,2.0000,2000.0000,1383.0000,2000.0000,-2.0000,-137.0000,-21.0000,1519.0000,-671.0000,9600.0000,0.2372,0.2653,-0.0722,0.9317,144.7700,-40.8600,-88.4500,-20.0700,-4.3400,-5.4700,0.0000,0.0000,-0.0000,1175.0000,1058.0000,1500.0000,2000.0000
184948.3750,2.0000,2000.0000,1383.0000,2000.0000,-58.0000,-138.0000,-12.0000,1583.0000,-949.0000,10063.0000,0.2395,0.2836,-0.0810,0.9250,144.3500,-40.9400,-88.5300,-19.7700,-4.2000,-6.1000,0.0000,0.0000,-0.0000,1175.0000,1058.0000,1500.0000,2000.0000
184965.4170,2.0000,2000.0000,1383.0000,2000.0000,-92.0000,-139.0000,-3.0000,1584.0000,-1154.0000,10342.0000,0.2422,0.3001,-0.0964,0.9176,144.3500,-40.9400,-88.5300,-19.7700,-4.2000,-6.1000,0.0000,0.0000,-0.0000,1175.0000,1058.0000,1500.0000,2000.0000
184981.8920,2.0000,2000.0000,1383.0000,2000.0000,-105.0000,-133.0000,3.0000,1627.0000,-1256.0000,10575.0000,0.2446,0.3145,-0.1142,0.9101,143.9400,-41.0100,-88.6300,-19.4200,-4.0400,-6.7500,0.0000,0.0000,-0.0000,1175.0000,1058.0000,1500.0000,2000.0000
184998.6290,2.0000,2000.0000,1000.0000,1489.0000,-112.0000,-124.0000,9.0000,1619.0000,-1232.0000,10563.0000,0.2470,0.3273,-0.1339,0.9022,143.5600,-41.0800,-88.7300,-19.0300,-3.8500,-7.3900,0.0000,0.0000,-0.0000,1886.0000,1127.0000,1500.0000,2000.0000
185015.1440,2.0000,2000.0000,1000.0000,1488.0000,-116.0000,-114.0000,12.0000,1695.0000,-922.0000,10596.0000,0.2493,0.3384,-0.1539,0.8942,143.1900,-41.1400,-88.8500,-18.6300,-3.6100,-8.0200,0.0000,0.0000,-0.0000,1886.0000,1127.0000,1500.0000,2000.0000
185031.9660,2.0000,2000.0000,1000.0000,1488.0000,-100.0000,-114.0000,13.0000,1694.0000,-882.0000,10283.0000,0.2509,0.3489,-0.1732,0.8862,142.7800,-41.2100,-88.9800,-18.2500,-3.3300,-8.6200,0.0000,0.0000,-0.0000,1886.0000,1127.0000,1500.0000,2000.0000
185049.0820,2.0000,2000.0000,1000.0000,1488.0000,-68.0000,-110.0000,8.0000,1593.0000,-1293.0000,10167.0000,0.2514,0.3601,-0.1894,0.8782,142.4000,-41.2700,-89.1200,-17.8800,-3.0400,-9.1900,0.0000,0.0000,-0.0000,1886.0000,1127.0000,1500.0000,2000.0000
185065.6520,2.0000,2000.0000,1000.0000,1488.0000,-28.0000,-104.0000,-1.0000,1625.0000,-1150.0000,10142.0000,0.2507,0.3716,-0.1998,0.8713,142.4000,-41.2700,-89.1200,-17.8800,-3.0400,-9.1900,0.0000,0.0000,-0.0000,1886.0000,1127.0000,1500.0000,2000.0000
185082.5690,2.0000,1998.0000,1000.0000,1509.0000,17.0000,-95.0000,-11.0000,1616.0000,-982.0000,9646.0000,0.2492,0.3844,-0.2037,0.8652,142.0300,-41.3300,-89.2700,-17.5000,-2.7500,-9.7200,0.0000,0.0000,-0.0000,1867.0000,1124.0000,1500.0000,1999.0000
185099.2160,2.0000,1998.0000,1000.0000,1510.0000,51.0000,-87.0000,-21.0000,1516.0000,-821.0000,9166.0000,0.2470,0.3976,-0.2019,0.8603,141.6800,-41.3700,-89.4300,-17.1400,-2.4600,-10.2000,0.0000,0.0000,-0.0000,1867.0000,1124.0000,1500.0000,1999.0000
185115.7360,2.0000,1998.0000,1000.0000,1510.0000,75.0000,-82.0000,-28.0000,1492.0000,-769.0000,8636.0000,0.2444,0.4110,-0.1957,0.8562,141.3400,-41.4100,-89.6000,-16.8000,-2.2000,-10.6200,0.0000,0.0000,-0.0000,1867.0000,1124.0000,1500.0000,1999.0000
185132.5470,2.0000,1998.0000,1000.0000,1510.0000,89.0000,-79.0000,-38.0000,1388.0000,-673.0000,7938.0000,0.2418,0.4245,-0.1863,0.8524,140.9700,-41.4600,-89.7800,-16.4100,-1.9300,-10.9900,0.0000,0.0000,-0.0000,1867.0000,1124.0000,1500.0000,1999.0000
185149.7500,2.0000,1998.0000,1000.0000,1510.0000,101.0000,-75.0000,-44.0000,1374.0000,-922.0000,7481.0000,0.2389,0.4389,-0.1742,0.8485,140.6200,-41.4900,-89.9700,-16.0500,-1.7400,-11.2900,0.0000,0.0000,-0.0000,1867.0000,1124.0000,1500.0000,1999.0000
185166.5440,2.0000,1998.0000,1000.0000,1510.0000,109.0000,-73.0000,-47.0000,1494.0000,-755.0000,7113.0000,0.2360,0.4526,-0.1605,0.8448,140.6200,-41.4900,-89.9700,-16.0500,-1.7400,-11.2900,0.0000,0.0000,-0.0000,1867.0000,1124.0000,1500.0000,1999.0000
185183.1980,2.0000,1998.0000,1000.0000,1510.0000,120.0000,-80.0000,-50.0000,1409.0000,-990.0000,7003.0000,0.2327,0.4671,-0.1458,0.8405,140.2900,-41.5300,-90.1600,-15.7000,-1.6100,-11.5600,0.0000,0.0000,-0.0000,1867.0000,1124.0000,1500.0000,1999.0000
185199.9660,2.0000,1998.0000,1288.0000,2000.0000,124.0000,-80.0000,-52.0000,1294.0000,-985.0000,6899.0000,0.2289,0.4822,-0.1299,0.8356,139.9700,-41.5600,-90.3500,-15.3400,-1.5200,-11.8000,0.0000,0.0000,-0.0000,1310.0000,1099.0000,1500.0000,1999.0000
185216.7130,2.0000,1998.0000,1288.0000,2000.0000,131.0000,-84.0000,-53.0000,1063.0000,-1155.0000,6907.0000,0.2247,0.4973,-0.1133,0.8303,139.6700,-41.5900,-90.5500,-14.9700,-1.4600,-12.0100,0.0000,0.0000,-0.0000,1310.0000,1099.0000,1500.0000,1999.0000
185233.8560,2.0000,1998.0000,1288.0000,2000.0000,113.0000,-77.0000,-50.0000,1184.0000,-949.0000,6689.0000,0.2202,0.5121,-0.0966,0.8246,139.3400,-41.6200,-90.7500,-14.4700,-1.3400,-12.1700,0.0000,0.0000,-0.0000,1310.0000,1099.0000,1500.0000,1999.0000
185250.7190,2.0000,1998.0000,1288.0000,2000.0000,75.0000,-88.0000,-40.0000,1324.0000,-1056.0000,6523.0000,0.2171,0.5258,-0.0842,0.8181,139.3400,-41.6200,-90.7500,-14.4700,-1.3400,-12.1700,0.0000,0.0000,-0.0000,1310.0000,1099.0000,1500.0000,1999.0000
185267.3990,2.0000,1998.0000,1288.0000,2000.0000,18.0000,-99.0000,-26.0000,1293.0000,-1012.0000,6187.0000,0.2161,0.5388,-0.0790,0.8104,139.0400,-41.6500,-90.9500,-14.0000,-1.2400,-12.3100,0.0000,0.0000,-0.0000,1310.0000,1099.0000,1500.0000,1999.0000
185284.3790,2.0000,2000.0000,1000.0000,1492.0000,-24.0000,-119.0000,-10.0000,1259.0000,-1197.0000,6086.0000,0.2172,0.5519,-0.0815,0.8010,138.7500,-41.6800,-91.1500,-13.5700,-1.1800,-12.4300,0.0000,0.0000,-0.0000,1892.0000,1118.0000,1500.0000,2000.0000
185301.1490,2.0000,2000.0000,1000.0000,1491.0000,-45.0000,-132.0000,1.0000,1448.0000,-1171.0000,6507.0000,0.2190,0.5655,-0.0894,0.7901,138.4900,-41.7000,-91.3600,-13.1500,-1.1400,-12.5100,0.0000,0.0000,-0.0000,1892.0000,1118.0000,1500.0000,2000.0000
185317.7600,2.0000,2000.0000,1000.0000,1491.0000,-40.0000,-145.0000,5.0000,1660.0000,-987.0000,7036.0000,0.2203,0.5798,-0.0992,0.7781,138.2300,-41.7200,-91.5600,-12.7000,-1.0600,-12.5900,0.0000,0.0000,-0.0000,1892.0000,1118.0000,1500.0000,2000.0000
185334.9480,2.0000,2000.0000,1000.0000,1491.0000,-14.0000,-149.0000,2.0000,1754.0000,-874.0000,7671.0000,0.2199,0.5959,-0.1075,0.7648,137.9600,-41.7500,-91.7700,-12.1200,-0.9200,-12.7100,0.0000,0.0000,-0.0000,1892.0000,1118.0000,1500.0000,2000.0000
185351.6320,2.0000,2000.0000,1000.0000,1491.0000,23.0000,-144.0000,-3.0000,1846.0000,-889.0000,8361.0000,0.2165,0.6125,-0.1110,0.7521,137.7000,-41.7700,-91.9800,-11.5000,-0.7300,-12.8200,0.0000,0.0000,-0.0000,1892.0000,1118.0000,1500.0000,2000.0000
185368.2360,2.0000,2000.0000,1000.0000,1491.0000,55.0000,-135.0000,-10.0000,1864.0000,-1129.0000,8787.0000,0.2110,0.6291,-0.1100,0.7400,137.7000,-41.7700,-91.9800,-11.5000,-0.7300,-12.8200,0.0000,0.0000,-0.0000,1892.0000,1118.0000,1500.0000,2000.0000
185384.8730,2.0000,2000.0000,1000.0000,1491.0000,77.0000,-122.0000,-16.0000,1930.0000,-1120.0000,8757.0000,0.2039,0.6449,-0.1053,0.7290,137.4700,-41.7900,-92.1900,-10.8300,-0.5400,-12.9000,0.0000,0.0000,-0.0000,1892.0000,1118.0000,1500.0000,2000.0000
185401.5880,2.0000,2000.0000,1000.0000,1507.0000,90.0000,-107.0000,-20.0000,1937.0000,-823.0000,8312.0000,0.1956,0.6598,-0.0977,0.7189,137.2600,-41.8000,-92.4000,-10.1600,-0.3600,-12.9600,0.0000,0.0000,-0.0000,1869.0000,1125.0000,1500.0000,2000.0000
185418.1790,2.0000,2000.0000,1000.0000,1507.0000,102.0000,-93.0000,-25.0000,1810.0000,-730.0000,7762.0000,0.1869,0.6734,-0.0877,0.7099,137.0600,-41.8100,-92.6200,-9.5500,-0.2200,-12.9700,0.0000,0.0000,-0.0000,1869.0000,1125.0000,1500.0000,2000.0000
185435.0480,2.0000,2000.0000,1000.0000,1507.0000,110.0000,-86.0000,-30.0000,1970.0000,-383.0000,7075.0000,0.1777,0.6860,-0.0760,0.7015,136.8500,-41.8200,-92.8300,-8.9400,-0.1300,-12.9600,0.0000,0.0000,-0.0000,1869.0000,1125.0000,1500.0000,2000.0000
185451.7380,2.0000,2000.0000,1000.0000,1507.0000,116.0000,-90.0000,-36.0000,1748.0000,-347.0000,6459.0000,0.1681,0.6980,-0.0628,0.6933,136.8500,-41.8200,-92.8300,-8.9400,-0.1300,-12.9600,0.0000,0.0000,-0.0000,1869.0000,1125.0000,1500.0000,2000.0000
185468.4570,2.0000,2000.0000,1000.0000,1507.0000,113.0000,-87.0000,-38.0000,1325.0000,-771.0000,6013.0000,0.1585,0.7100,-0.0487,0.6844,136.6600,-41.8300,-93.0500,-8.4200,-0.0700,-12.9400,0.0000,0.0000,-0.0000,1869.0000,1125.0000,1500.0000,2000.0000
185485.2060,2.0000,2000.0000,1455.0000,2000.0000,113.0000,-81.0000,-40.0000,1505.0000,-612.0000,5771.0000,0.1494,0.7211,-0.0346,0.6756,136.4900,-41.8400,-93.2700,-7.9700,-0.0800,-12.8400,0.0000,0.0000,-0.0000,1064.0000,1035.0000,1500.0000,2000.0000
185501.9260,2.0000,2000.0000,1471.0000,2000.0000,119.0000,-84.0000,-43.0000,1432.0000,-390.0000,5535.0000,0.1401,0.7319,-0.0198,0.6665,136.3300,-41.8500,-93.4800,-7.5800,-0.1200,-12.7300,0.0000,0.0000,-0.0000,1064.0000,1035.0000,1500.0000,2000.0000
185518.5690,2.0000,2000.0000,1471.0000,2000.0000,103.0000,-93.0000,-44.0000,1536.0000,-701.0000,5072.0000,0.1318,0.7426,-0.0056,0.6567,136.1700,-41.8700,-93.6900,-7.1900,-0.1700,-12.6100,0.0000,0.0000,-0.0000,1064.0000,1035.0000,1500.0000,2000.0000
185535.5900,2.0000,2000.0000,1471.0000,2000.0000,58.0000,-98.0000,-36.0000,1352.0000,-683.0000,4869.0000,0.1269,0.7531,0.0048,0.6455,136.0200,-41.8800,-93.9000,-6.6700,-0.2400,-12.4500,0.0000,0.0000,-0.0000,1064.0000,1035.0000,1500.0000,2000.0000
185552.4700,2.0000,2000.0000,1471.0000,2000.0000,-1.0000,-108.0000,-25.0000,1365.0000,-912.0000,4799.0000,0.1266,0.7634,0.0092,0.6333,136.0200,-41.8800,-93.9000,-6.6700,-0.2400,-12.4500,0.0000,0.0000,-0.0000,1064.0000,1035.0000,1500.0000,2000.0000
185569.3250,2.0000,2000.0000,1471.0000,2000.0000,-44.0000,-114.0000,-13.0000,1454.0000,-319.0000,5010.0000,0.1314,0.7731,0.0071,0.6204,135.8800,-41.9000,-94.1100,-6.2000,-0.3400,-12.2800,0.0000,0.0000,-0.0000,1064.0000,1035.0000,1500.0000,2000.0000
185586.0550,2.0000,2000.0000,1000.0000,1364.0000,-78.0000,-122.0000,-3.0000,1531.0000,-607.0000,5379.0000,0.1392,0.7825,0.0001,0.6069,135.7500,-41.9200,-94.3100,-5.7300,-0.3900,-12.1000,0.0000,0.0000,-0.0000,1912.0000,1226.0000,1500.0000,2000.0000
185602.9790,2.0000,2000.0000,1000.0000,1363.0000,-101.0000,-120.0000,5.0000,1522.0000,-882.0000,5834.0000,0.1495,0.7913,-0.0105,0.5927,135.6400,-41.9400,-94.5200,-5.2500,-0.4200,-11.8900,0.0000,0.0000,-0.0000,1912.0000,1226.0000,1500.0000,2000.0000
185619.5660,2.0000,2000.0000,1000.0000,1363.0000,-93.0000,-127.0000,6.0000,1589.0000,-903.0000,5904.0000,0.1601,0.7996,-0.0222,0.5784,135.5400,-41.9600,-94.7100,-4.7300,-0.4600,-11.6500,0.0000,0.0000,-0.0000,1912.0000,1226.0000,1500.0000,2000.0000
185636.6290,2.0000,2000.0000,1000.0000,1363.0000,-58.0000,-132.0000,-2.0000,1382.0000,-878.0000,5932.0000,0.1686,0.8087,-0.0320,0.5627,135.4400,-41.9900,-94.9100,-4.1400,-0.5300,-11.3900,0.0000,0.0000,-0.0000,1912.0000,1226.0000,1500.0000,2000.0000
185653.4550,2.0000,2000.0000,1000.0000,1363.0000,-14.0000,-133.0000,-14.0000,1562.0000,-755.0000,5989.0000,0.1730,0.8186,-0.0375,0.5463,135.4400,-41.9900,-94.9100,-4.1400,-0.5300,-11.3900,0.0000,0.0000,-0.0000,1912.0000,1226.0000,1500.0000,2000.0000
185670.4630,2.0000,2000.0000,1000.0000,1363.0000,43.0000,-126.0000,-25.0000,2063.0000,-832.0000,6343.0000,0.1721,0.8295,-0.0375,0.5300,135.3500,-42.0100,-95.1000,-3.5900,-0.5600,-11.1000,0.0000,0.0000,-0.0000,1912.0000,1226.0000,1500.0000,2000.0000
185687.3830,2.0000,2000.0000,1000.0000,1363.0000,90.0000,-111.0000,-35.0000,2069.0000,-764.0000,6564.0000,0.1656,0.8404,-0.0317,0.5150,135.2800,-42.0400,-95.2800,-3.0300,-0.5900,-10.8200,0.0000,0.0000,-0.0000,1912.0000,1226.0000,1500.0000,2000.0000
185704.3090,2.0000,2000.0000,1505.0000,2000.0000,122.0000,-94.0000,-43.0000,2078.0000,-442.0000,6460.0000,0.1550,0.8507,-0.0215,0.5018,135.2300,-42.0700,-95.4600,-2.5000,-0.6000,-10.5100,0.0000,0.0000,-0.0000,1096.0000,1101.0000,1500.0000,2000.0000
185721.1900,2.0000,2000.0000,1505.0000,2000.0000,136.0000,-81.0000,-45.0000,1896.0000,-594.0000,6144.0000,0.1416,0.8603,-0.0086,0.4897,135.1800,-42.1000,-95.6300,-1.9700,-0.6400,-10.1900,0.0000,0.0000,-0.0000,1096.0000,1101.0000,1500.0000,2000.0000
185738.4970,2.0000,2000.0000,1505.0000,2000.0000,118.0000,-65.0000,-49.0000,1749.0000,-877.0000,5510.0000,0.1282,0.8681,0.0054,0.4795,135.1400,-42.1400,-95.8000,-1.4300,-0.7800,-9.8600,0.0000,0.0000,-0.0000,1096.0000,1101.0000,1500.0000,2000.0000
185754.9830,2.0000,2000.0000,1505.0000,2000.0000,64.0000,-62.0000,-48.0000,1588.0000,-59.0000,4579.0000,0.1203,0.8738,0.0165,0.4708,135.1400,-42.1400,-95.8000,-1.4300,-0.7800,-9.8600,0.0000,0.0000,-0.0000,1096.0000,1101.0000,1500.0000,2000.0000
185772.0750,2.0000,1998.0000,1699.0000,1887.0000,-3.0000,-70.0000,-41.0000,2147.0000,291.0000,3752.0000,0.1198,0.8788,0.0232,0.4614,135.1100,-42.1800,-95.9700,-1.0300,-0.9200,-9.5600,0.0000,0.0000,-0.0000,1218.0000,1435.0000,1500.0000,1999.0000
185788.6660,2.0000,1998.0000,1718.0000,1846.0000,-59.0000,-83.0000,-36.0000,1676.0000,-42.0000,3451.0000,0.1268,0.8831,0.0246,0.4510,135.0900,-42.2200,-96.1300,-0.7200,-1.0400,-9.3400,0.0000,0.0000,-0.0000,1218.0000,1435.0000,1500.0000,1999.0000
185805.5430,2.0000,1998.0000,1718.0000,1846.0000,-104.0000,-89.0000,-33.0000,1465.0000,-665.0000,3754.0000,0.1402,0.8872,0.0221,0.4390,135.0700,-42.2600,-96.2900,-0.5000,-1.1800,-9.1200,0.0000,0.0000,-0.0000,1218.0000,1435.0000,1500.0000,1999.0000
185822.3120,2.0000,1998.0000,1718.0000,1846.0000,-144.0000,-86.0000,-31.0000,1790.0000,-284.0000,4153.0000,0.1584,0.8900,0.0168,0.4272,135.0600,-42.3200,-96.4500,-0.2100,-1.3500,-8.8400,0.0000,0.0000,-0.0000,1218.0000,1435.0000,1500.0000,1999.0000
185839.3490,2.0000,1998.0000,1718.0000,1846.0000,-180.0000,-67.0000,-28.0000,1572.0000,-581.0000,4577.0000,0.1819,0.8906,0.0087,0.4167,135.0600,-42.3800,-96.6100,0.1800,-1.5200,-8.5400,0.0000,0.0000,-0.0000,1218.0000,1435.0000,1500.0000,1999.0000
185856.1830,2.0000,1998.0000,1718.0000,1846.0000,-206.0000,-47.0000,-24.0000,1662.0000,-463.0000,4311.0000,0.2089,0.8885,-0.0011,0.4086,135.0600,-42.3800,-96.6100,0.1800,-1.5200,-8.5400,0.0000,0.0000,-0.0000,1218.0000,1435.0000,1500.0000,1999.0000
185872.9220,2.0000,1998.0000,1718.0000,1846.0000,-231.0000,-31.0000,-21.0000,1820.0000,-761.0000,4010.0000,0.2384,0.8837,-0.0122,0.4025,135.0600,-42.4400,-96.7700,0.5300,-1.6600,-8.2100,0.0000,0.0000,-0.0000,1218.0000,1435.0000,1500.0000,1999.0000
185889.9600,2.0000,1999.0000,1000.0000,1459.0000,-247.0000,-18.0000,-16.0000,1619.0000,-786.0000,3503.0000,0.2706,0.8763,-0.0246,0.3978,135.0800,-42.5100,-96.9100,0.8400,-1.7900,-7.9200,0.0000,0.0000,-0.0000,1891.0000,1160.0000,1500.0000,2000.0000
185906.7950,2.0000,2000.0000,1000.0000,1450.0000,-255.0000,-7.0000,-12.0000,1649.0000,-132.0000,2800.0000,0.3033,0.8664,-0.0374,0.3949,135.0900,-42.5700,-97.0600,1.0600,-1.9200,-7.6700,0.0000,0.0000,-0.0000,1891.0000,1160.0000,1500.0000,2000.0000
185923.5870,2.0000,2000.0000,1000.0000,1450.0000,-256.0000,3.0000,-12.0000,1781.0000,-217.0000,2529.0000,0.3359,0.8547,-0.0500,0.3926,135.1100,-42.6500,-97.2000,1.2800,-2.0300,-7.5100,0.0000,0.0000,-0.0000,1891.0000,1160.0000,1500.0000,2000.0000
185940.8780,2.0000,2000.0000,1000.0000,1450.0000,-231.0000,7.0000,-14.0000,1810.0000,-401.0000,2028.0000,0.3679,0.8415,-0.0620,0.3907,135.1500,-42.7300,-97.3500,1.5800,-2.2000,-7.3800,0.0000,0.0000,-0.0000,1891.0000,1160.0000,1500.0000,2000.0000
185957.7080,2.0000,2000.0000,1000.0000,1450.0000,-171.0000,-3.0000,-21.0000,1621.0000,-602.0000,1428.0000,0.3939,0.8301,-0.0715,0.3881,135.1500,-42.7300,-97.3500,1.5800,-2.2000,-7.3800,0.0000,0.0000,-0.0000,1891.0000,1160.0000,1500.0000,2000.0000
185974.4500,2.0000,2000.0000,1000.0000,1450.0000,-107.0000,-11.0000,-34.0000,1366.0000,-380.0000,819.0000,0.4120,0.8227,-0.0761,0.3841,135.1800,-42.8200,-97.5100,1.8100,-2.3700,-7.2700,0.0000,0.0000,-0.0000,1891.0000,1160.0000,1500.0000,2000.0000
185991.2660,2.0000,2000.0000,1000.0000,1384.0000,-40.0000,-21.0000,-50.0000,1358.0000,138.0000,637.0000,0.4228,0.8196,-0.0754,0.3791,135.2200,-42.9000,-97.6600,1.9500,-2.5500,-7.1600,0.0000,0.0000,-0.0000,1839.0000,1277.0000,1500.0000,2000.0000
186008.0840,2.0000,2000.0000,1000.0000,1384.0000,24.0000,-43.0000,-64.0000,1469.0000,-72.0000,629.0000,0.4263,0.8217,-0.0708,0.3716,135.2600,-42.9800,-97.8100,2.0300,-2.7000,-7.0800,0.0000,0.0000,-0.0000,1839.0000,1277.0000,1500.0000,2000.0000
186025.0890,2.0000,2000.0000,1000.0000,1384.0000,71.0000,-56.0000,-77.0000,1719.0000,-387.0000,1148.0000,0.4236,0.8282,-0.0623,0.3615,135.3100,-43.0700,-97.9600,2.3000,-2.8500,-7.0000,0.0000,0.0000,-0.0000,1839.0000,1277.0000,1500.0000,2000.0000
186041.9210,2.0000,2000.0000,1000.0000,1384.0000,115.0000,-66.0000,-83.0000,1633.0000,-449.0000,1494.0000,0.4159,0.8378,-0.0514,0.3500,135.3100,-43.0700,-97.9600,2.3000,-2.8500,-7.0000,0.0000,0.0000,-0.0000,1839.0000,1277.0000,1500.0000,2000.0000
186058.7670,2.0000,2000.0000,1000.0000,1384.0000,153.0000,-76.0000,-86.0000,1333.0000,-592.0000,1553.0000,0.4029,0.8502,-0.0382,0.3366,135.3800,-43.1700,-98.1200,2.7800,-2.9500,-6.8500,0.0000,0.0000,-0.0000,1839.0000,1277.0000,1500.0000,2000.0000
186075.6380,2.0000,1923.0000,1327.0000,1721.0000,184.0000,-82.0000,-87.0000,1407.0000,-936.0000,1819.0000,0.3856,0.8643,-0.0238,0.3222,135.4600,-43.2600,-98.2600,3.2000,-3.0300,-6.6600,0.0000,0.0000,-0.0000,1093.0000,1328.0000,1500.0000,1851.0000
186092.4800,2.0000,1842.0000,1736.0000,2000.0000,213.0000,-91.0000,-89.0000,1308.0000,-737.0000,2208.0000,0.3639,0.8796,-0.0083,0.3064,135.5400,-43.3500,-98.4100,3.5900,-3.1100,-6.3900,0.0000,0.0000,-0.0000,1093.0000,1328.0000,1500.0000,1851.0000
186109.2200,2.0000,1842.0000,1736.0000,2000.0000,225.0000,-94.0000,-85.0000,1081.0000,-718.0000,2447.0000,0.3391,0.8950,0.0075,0.2898,135.6300,-43.4400,-98.5400,3.9300,-3.1600,-6.0900,0.0000,0.0000,-0.0000,1093.0000,1328.0000,1500.0000,1851.0000
186126.2710,2.0000,1842.0000,1736.0000,2000.0000,201.0000,-99.0000,-74.0000,1300.0000,-875.0000,2755.0000,0.3142,0.9093,0.0220,0.2721,135.7300,-43.5300,-98.6700,4.3600,-3.1800,-5.7500,0.0000,0.0000,-0.0000,1093.0000,1328.0000,1500.0000,1851.0000
186143.5300,2.0000,1842.0000,1736.0000,2000.0000,135.0000,-104.0000,-53.0000,1351.0000,-1160.0000,2824.0000,0.2940,0.9207,0.0326,0.2544,135.7300,-43.5300,-98.6700,4.3600,-3.1800,-5.7500,0.0000,0.0000,-0.0000,1093.0000,1328.0000,1500.0000,1851.0000
186160.5810,2.0000,1842.0000,1736.0000,2000.0000,57.0000,-113.0000,-30.0000,1142.0000,-1113.0000,3024.0000,0.2828,0.9286,0.0375,0.2373,135.8600,-43.6300,-98.7900,4.8600,-3.2200,-5.3600,0.0000,0.0000,-0.0000,1093.0000,1328.0000,1500.0000,1851.0000
186177.2740,2.0000,1842.0000,1736.0000,2000.0000,-27.0000,-105.0000,-4.0000,1031.0000,-748.0000,3571.0000,0.2821,0.9327,0.0361,0.2219,135.9900,-43.7200,-98.9000,5.2900,-3.2600,-4.9600,0.0000,0.0000,-0.0000,1093.0000,1328.0000,1500.0000,1851.0000
186193.8970,2.0000,2000.0000,1000.0000,1213.0000,-103.0000,-94.0000,18.0000,1465.0000,-1073.0000,4501.0000,0.2912,0.9330,0.0291,0.2092,136.1300,-43.8100,-99.0000,5.6800,-3.2500,-4.5300,0.0000,0.0000,-0.0000,1907.0000,1381.0000,1500.0000,2000.0000
186210.5920,2.0000,2000.0000,1000.0000,1212.0000,-154.0000,-76.0000,37.0000,1592.0000,-1197.0000,4739.0000,0.3082,0.9300,0.0182,0.1994,136.2600,-43.8900,-99.0900,6.0800,-3.2000,-4.0400,0.0000,0.0000,-0.0000,1907.0000,1381.0000,1500.0000,2000.0000
186227.6700,2.0000,2000.0000,1000.0000,1212.0000,-157.0000,-73.0000,47.0000,1500.0000,-574.0000,3791.0000,0.3292,0.9245,0.0049,0.1920,136.4200,-43.9900,-99.1800,6.4600,-3.1600,-3.5600,0.0000,0.0000,-0.0000,1907.0000,1381.0000,1500.0000,2000.0000
186244.6030,2.0000,2000.0000,1000.0000,1212.0000,-114.0000,-84.0000,47.0000,1497.0000,-986.0000,3167.0000,0.3466,0.9198,-0.0087,0.1838,136.4200,-43.9900,-99.1800,6.4600,-3.1600,-3.5600,0.0000,0.0000,-0.0000,1907.0000,1381.0000,1500.0000,2000.0000
186261.3120,2.0000,2000.0000,1000.0000,1212.0000,-53.0000,-94.0000,41.0000,1778.0000,-1082.0000,3106.0000,0.3565,0.9177,-0.0208,0.1742,136.5900,-44.0800,-99.2600,6.7700,-3.1500,-3.1700,0.0000,0.0000,-0.0000,1907.0000,1381.0000,1500.0000,2000.0000
186278.3470,2.0000,2000.0000,1000.0000,1212.0000,44.0000,-94.0000,25.0000,1439.0000,-566.0000,3527.0000,0.3559,0.9197,-0.0298,0.1630,136.7600,-44.1700,-99.3300,7.0300,-3.1700,-2.8000,0.0000,0.0000,-0.0000,1907.0000,1381.0000,1500.0000,2000.0000
186295.1900,2.0000,2000.0000,1000.0000,1267.0000,131.0000,-83.0000,11.0000,1244.0000,-225.0000,3910.0000,0.3428,0.9264,-0.0341,0.1523,136.9200,-44.2500,-99.4000,7.2400,-3.1100,-2.4300,0.0000,0.0000,-0.0000,1878.0000,1354.0000,1500.0000,2000.0000
186311.8820,2.0000,2000.0000,1000.0000,1268.0000,197.0000,-65.0000,-2.0000,1517.0000,-133.0000,3894.0000,0.3197,0.9360,-0.0342,0.1436,137.0700,-44.3300,-99.4500,7.4000,-2.9900,-2.0500,0.0000,0.0000,-0.0000,1878.0000,1354.0000,1500.0000,2000.0000
186328.5270,2.0000,2000.0000,1000.0000,1268.0000,243.0000,-48.0000,-12.0000,1543.0000,-390.0000,3457.0000,0.2892,0.9469,-0.0305,0.1370,137.2400,-44.4100,-99.5100,7.5400,-2.9400,-1.6700,0.0000,0.0000,-0.0000,1878.0000,1354.0000,1500.0000,2000.0000
186345.3710,2.0000,2000.0000,1000.0000,1268.0000,273.0000,-35.0000,-27.0000,1373.0000,-287.0000,2646.0000,0.2529,0.9582,-0.0235,0.1317,137.2400,-44.4100,-99.5100,7.5400,-2.9400,-1.6700,0.0000,0.0000,-0.0000,1878.0000,1354.0000,1500.0000,2000.0000
186362.2420,2.0000,2000.0000,1000.0000,1268.0000,294.0000,-20.0000,-38.0000,1070.0000,-200.0000,1557.0000,0.2133,0.9686,-0.0138,0.1273,137.4100,-44.4900,-99.5500,7.6500,-2.9700,-1.3200,0.0000,0.0000,-0.0000,1878.0000,1354.0000,1500.0000,2000.0000
186379.0230,2.0000,2000.0000,1000.0000,1268.0000,309.0000,-14.0000,-49.0000,1128.0000,10.0000,688.0000,0.1710,0.9774,-0.0021,0.1241,137.5800,-44.5700,-99.6000,7.6900,-3.0600,-1.0700,0.0000,0.0000,-0.0000,1878.0000,1354.0000,1500.0000,2000.0000
186396.1600,2.0000,2000.0000,1492.0000,2000.0000,320.0000,-7.0000,-57.0000,1187.0000,29.0000,-33.0000,0.1259,0.9845,0.0113,0.1215,137.7400,-44.6500,-99.6400,7.6800,-3.1600,-0.9300,0.0000,0.0000,-0.0000,1058.0000,1050.0000,1500.0000,2000.0000
186412.8140,2.0000,2000.0000,1492.0000,2000.0000,314.0000,-6.0000,-65.0000,1229.0000,114.0000,-608.0000,0.0811,0.9893,0.0254,0.1188,137.8800,-44.7200,-99.6900,7.6600,-3.2800,-0.8700,0.0000,0.0000,-0.0000,1058.0000,1050.0000,1500.0000,2000.0000
186429.6120,2.0000,2000.0000,1492.0000,2000.0000,262.0000,-6.0000,-66.0000,1484.0000,-89.0000,-1096.0000,0.0399,0.9917,0.0393,0.1159,138.0500,-44.8200,-99.7400,7.6500,-3.4500,-0.8900,0.0000,0.0000,-0.0000,1058.0000,1050.0000,1500.0000,2000.0000
186446.5130,2.0000,2000.0000,1492.0000,2000.0000,171.0000,-24.0000,-58.0000,1529.0000,28.0000,-1366.0000,0.0091,0.9923,0.0525,0.1120,138.0500,-44.8200,-99.7400,7.6500,-3.4500,-0.8900,0.0000,0.0000,-0.0000,1058.0000,1050.0000,1500.0000,2000.0000
186463.3140,2.0000,2000.0000,1492.0000,2000.0000,64.0000,-45.0000,-40.0000,1397.0000,-240.0000,-1731.0000,-0.0070,0.9924,0.0625,0.1062,138.2200,-44.9100,-99.8000,7.6800,-3.6000,-0.9400,0.0000,0.0000,-0.0000,1058.0000,1050.0000,1500.0000,2000.0000
186480.2160,2.0000,2000.0000,1642.0000,2000.0000,-31.0000,-71.0000,-18.0000,1410.0000,-808.0000,-1550.0000,-0.0077,0.9929,0.0678,0.0979,138.3700,-45.0000,-99.8600,7.6800,-3.7400,-1.0300,0.0000,0.0000,-0.0000,1036.0000,1179.0000,1500.0000,2000.0000
186496.7860,2.0000,2000.0000,1643.0000,2000.0000,-89.0000,-89.0000,0.0000,1043.0000,-894.0000,-907.0000,0.0023,0.9938,0.0688,0.0869,138.5200,-45.0900,-99.9200,7.6700,-3.9100,-1.0900,0.0000,0.0000,-0.0000,1036.0000,1179.0000,1500.0000,2000.0000
186513.6270,2.0000,2000.0000,1643.0000,2000.0000,-130.0000,-104.0000,16.0000,1060.0000,-1093.0000,338.0000,0.0194,0.9948,0.0670,0.0737,138.6600,-45.1800,-99.9800,7.6300,-4.0800,-1.0400,0.0000,0.0000,-0.0000,1036.0000,1179.0000,1500.0000,2000.0000
186530.5580,2.0000,2000.0000,1643.0000,2000.0000,-171.0000,-100.0000,29.0000,913.0000,-902.0000,1306.0000,0.0423,0.9953,0.0627,0.0607,138.8100,-45.2800,-100.0400,7.5900,-4.2600,-0.8300,0.0000,0.0000,-0.0000,1036.0000,1179.0000,1500.0000,2000.0000
186547.5780,2.0000,2000.0000,1643.0000,2000.0000,-205.0000,-98.0000,43.0000,1067.0000,-610.0000,2240.0000,0.0709,0.9948,0.0561,0.0477,138.8100,-45.2800,-100.0400,7.5900,-4.2600,-0.8300,0.0000,0.0000,-0.0000,1036.0000,1179.0000,1500.0000,2000.0000
186564.3410,2.0000,2000.0000,1643.0000,2000.0000,-237.0000,-97.0000,48.0000,1129.0000,-633.0000,2824.0000,0.1037,0.9928,0.0478,0.0358,138.9700,-45.3900,-100.1000,7.5500,-4.3700,-0.4800,0.0000,0.0000,-0.0000,1036.0000,1179.0000,1500.0000,2000.0000
186580.8990,2.0000,2000.0000,1643.0000,2000.0000,-261.0000,-96.0000,52.0000,863.0000,-847.0000,3142.0000,0.1397,0.9891,0.0392,0.0244,139.1100,-45.4900,-100.1400,7.5300,-4.4400,-0.0500,0.0000,0.0000,-0.0000,1036.0000,1179.0000,1500.0000,2000.0000
186597.6770,2.0000,2000.0000,1024.0000,1724.0000,-278.0000,-94.0000,56.0000,1157.0000,-532.0000,3524.0000,0.1789,0.9833,0.0297,0.0136,139.2500,-45.5900,-100.1700,7.4900,-4.4600,0.4200,0.0000,0.0000,-0.0000,1889.0000,1136.0000,1500.0000,2000.0000
186614.2550,2.0000,2000.0000,1000.0000,1476.0000,-291.0000,-90.0000,55.0000,1378.0000,-276.0000,3929.0000,0.2196,0.9754,0.0203,0.0035,139.4200,-45.6900,-100.1900,7.6900,-4.3700,0.9200,0.0000,0.0000,-0.0000,1889.0000,1136.0000,1500.0000,2000.0000
186630.9460,2.0000,2000.0000,1000.0000,1476.0000,-290.0000,-85.0000,48.0000,1279.0000,-180.0000,4058.0000,0.2612,0.9652,0.0115,-0.0060,139.6000,-45.7900,-100.1900,7.9700,-4.1800,1.4200,0.0000,0.0000,-0.0000,1889.0000,1136.0000,1500.0000,2000.0000
186647.9980,2.0000,2000.0000,1000.0000,1476.0000,-248.0000,-96.0000,34.0000,1315.0000,-369.0000,3808.0000,0.3000,0.9538,0.0031,-0.0165,139.6000,-45.7900,-100.1900,7.9700,-4.1800,1.4200,0.0000,0.0000,-0.0000,1889.0000,1136.0000,1500.0000,2000.0000
186664.7670,2.0000,2000.0000,1000.0000,1476.0000,-177.0000,-104.0000,13.0000,1035.0000,-463.0000,3666.0000,0.3297,0.9436,-0.0032,-0.0290,139.7700,-45.8800,-100.1900,8.2000,-3.9800,1.8900,0.0000,0.0000,-0.0000,1889.0000,1136.0000,1500.0000,2000.0000
186681.7750,2.0000,2000.0000,1000.0000,1476.0000,-100.0000,-117.0000,-15.0000,1135.0000,-10.0000,3949.0000,0.3488,0.9361,-0.0069,-0.0444,139.9300,-45.9600,-100.1800,8.3600,-3.7900,2.3400,0.0000,0.0000,-0.0000,1889.0000,1136.0000,1500.0000,2000.0000
186698.4810,2.0000,2000.0000,1000.0000,1516.0000,-25.0000,-120.0000,-43.0000,1383.0000,22.0000,4462.0000,0.3569,0.9321,-0.0073,-0.0616,140.1000,-46.0300,-100.1500,8.4900,-3.5600,2.7800,0.0000,0.0000,-0.0000,1859.0000,1126.0000,1500.0000,2000.0000
186715.1940,2.0000,2000.0000,1000.0000,1516.0000,27.0000,-134.0000,-68.0000,1392.0000,-171.0000,4895.0000,0.3561,0.9309,-0.0051,-0.0812,140.2900,-46.1000,-100.1200,8.7300,-3.2900,3.2700,0.0000,0.0000,-0.0000,1859.0000,1126.0000,1500.0000,2000.0000
186731.9810,2.0000,2000.0000,1000.0000,1516.0000,63.0000,-138.0000,-87.0000,1175.0000,-277.0000,5089.0000,0.3488,0.9314,-0.0009,-0.1036,140.5000,-46.1700,-100.0900,8.9700,-3.0300,3.8000,0.0000,0.0000,-0.0000,1859.0000,1126.0000,1500.0000,2000.0000
186748.8380,2.0000,2000.0000,1000.0000,1516.0000,84.0000,-139.0000,-100.0000,1044.0000,-503.0000,5539.0000,0.3371,0.9328,0.0046,-0.1273,140.5000,-46.1700,-100.0900,8.9700,-3.0300,3.8000,0.0000,0.0000,-0.0000,1859.0000,1126.0000,1500.0000,2000.0000
186765.6200,2.0000,2000.0000,1000.0000,1516.0000,99.0000,-137.0000,-109.0000,1368.0000,-606.0000,6198.0000,0.3226,0.9343,0.0110,-0.1511,140.7100,-46.2300,-100.0400,9.1300,-2.8000,4.3800,0.0000,0.0000,-0.0000,1859.0000,1126.0000,1500.0000,2000.0000
186782.6910,2.0000,2000.0000,1000.0000,1516.0000,114.0000,-137.0000,-113.0000,1619.0000,-576.0000,6405.0000,0.3054,0.9357,0.0181,-0.1754,140.9000,-46.2800,-99.9800,9.2400,-2.5900,5.0200,0.0000,0.0000,-0.0000,1859.0000,1126.0000,1500.0000,2000.0000
186799.6240,2.0000,2000.0000,1484.0000,2000.0000,124.0000,-133.0000,-113.0000,1274.0000,-706.0000,6548.0000,0.2864,0.9369,0.0252,-0.1992,141.0900,-46.3300,-99.9000,9.3000,-2.3900,5.7200,0.0000,0.0000,-0.0000,1060.0000,1044.0000,1500.0000,2000.0000
186816.4180,2.0000,2000.0000,1484.0000,2000.0000,132.0000,-127.0000,-109.0000,1282.0000,-1143.0000,6705.0000,0.2658,0.9375,0.0317,-0.2222,141.3100,-46.3800,-99.8100,9.3700,-2.3000,6.4400,0.0000,0.0000,-0.0000,1060.0000,1044.0000,1500.0000,2000.0000
186833.2630,2.0000,2000.0000,1484.0000,2000.0000,123.0000,-129.0000,-103.0000,1120.0000,-1456.0000,6853.0000,0.2448,0.9374,0.0376,-0.2447,141.5300,-46.4400,-99.7000,9.3900,-2.2800,7.2100,0.0000,0.0000,-0.0000,1060.0000,1044.0000,1500.0000,2000.0000
186850.2810,2.0000,2000.0000,1484.0000,2000.0000,85.0000,-132.0000,-88.0000,1487.0000,-1203.0000,6853.0000,0.2274,0.9355,0.0431,-0.2668,141.5300,-46.4400,-99.7000,9.3900,-2.2800,7.2100,0.0000,0.0000,-0.0000,1060.0000,1044.0000,1500.0000,2000.0000
186866.9260,2.0000,2000.0000,1484.0000,2000.0000,29.0000,-135.0000,-65.0000,1468.0000,-1065.0000,6853.0000,0.2177,0.9315,0.0476,-0.2876,141.7400,-46.4900,-99.5700,9.3600,-2.2700,7.9900,0.0000,0.0000,-0.0000,1060.0000,1044.0000,1500.0000,2000.0000
186883.6100,2.0000,2000.0000,1000.0000,1881.0000,-26.0000,-139.0000,-36.0000,1351.0000,-1512.0000,7077.0000,0.2169,0.9250,0.0510,-0.3077,141.9400,-46.5400,-99.4200,9.2900,-2.2400,8.7600,0.0000,0.0000,-0.0000,1566.0000,1056.0000,1500.0000,2000.0000
186900.5050,2.0000,2000.0000,1000.0000,1880.0000,-64.0000,-140.0000,-11.0000,1461.0000,-1711.0000,7425.0000,0.2236,0.9168,0.0528,-0.3267,142.1300,-46.5900,-99.2500,9.1500,-2.2400,9.5700,0.0000,0.0000,-0.0000,1566.0000,1056.0000,1500.0000,2000.0000
186917.4690,2.0000,2000.0000,1000.0000,1880.0000,-69.0000,-145.0000,8.0000,1443.0000,-1457.0000,7257.0000,0.2345,0.9074,0.0526,-0.3449,142.3400,-46.6500,-99.0700,8.9700,-2.2400,10.3600,0.0000,0.0000,-0.0000,1566.0000,1056.0000,1500.0000,2000.0000
186934.2870,2.0000,2000.0000,1000.0000,1880.0000,-52.0000,-164.0000,15.0000,1137.0000,-1387.0000,6868.0000,0.2448,0.8972,0.0500,-0.3640,142.3400,-46.6500,-99.0700,8.9700,-2.2400,10.3600,0.0000,0.0000,-0.0000,1566.0000,1056.0000,1500.0000,2000.0000
186951.3600,2.0000,2000.0000,1000.0000,1880.0000,-27.0000,-184.0000,20.0000,1138.0000,-1178.0000,7004.0000,0.2529,0.8861,0.0442,-0.3860,142.5500,-46.7100,-98.8700,8.7600,-2.2100,11.1000,0.0000,0.0000,-0.0000,1566.0000,1056.0000,1500.0000,2000.0000
186968.2410,2.0000,2000.0000,1000.0000,1880.0000,-8.0000,-203.0000,18.0000,1319.0000,-996.0000,7865.0000,0.2576,0.8740,0.0363,-0.4104,142.7400,-46.7600,-98.6600,8.5300,-2.1700,11.7700,0.0000,0.0000,-0.0000,1566.0000,1056.0000,1500.0000,2000.0000
186985.0590,2.0000,2000.0000,1000.0000,1490.0000,-3.0000,-212.0000,16.0000,1351.0000,-1154.0000,9234.0000,0.2607,0.8609,0.0275,-0.4360,142.9200,-46.8100,-98.4300,8.2600,-2.0800,12.4400,0.0000,0.0000,-0.0000,1886.0000,1126.0000,1500.0000,2000.0000
187001.9020,2.0000,2000.0000,1000.0000,1489.0000,-3.0000,-215.0000,15.0000,1368.0000,-1260.0000,10273.0000,0.2633,0.8467,0.0187,-0.4620,143.0900,-46.8600,-98.1900,7.8500,-1.9400,13.1600,0.0000,0.0000,-0.0000,1886.0000,1126.0000,1500.0000,2000.0000
187018.9280,2.0000,2000.0000,1000.0000,1489.0000,-1.0000,-198.0000,12.0000,1508.0000,-1243.0000,11250.0000,0.2662,0.8318,0.0105,-0.4869,143.2800,-46.9100,-97.9400,7.5000,-1.7500,13.8800,0.0000,0.0000,-0.0000,1886.0000,1126.0000,1500.0000,2000.0000
187035.7360,2.0000,2000.0000,1000.0000,1489.0000,20.0000,-181.0000,1.0000,1668.0000,-949.0000,11707.0000,0.2667,0.8183,0.0032,-0.5092,143.4600,-46.9600,-97.6700,7.0700,-1.5100,14.5900,0.0000,0.0000,-0.0000,1886.0000,1126.0000,1500.0000,2000.0000
187052.7060,2.0000,2000.0000,1000.0000,1489.0000,39.0000,-154.0000,-11.0000,1662.0000,-809.0000,11821.0000,0.2635,0.8065,-0.0039,-0.5293,143.4600,-46.9600,-97.6700,7.0700,-1.5100,14.5900,0.0000,0.0000,-0.0000,1886.0000,1126.0000,1500.0000,2000.0000
187069.4180,2.0000,2000.0000,1000.0000,1489.0000,61.0000,-126.0000,-22.0000,1553.0000,-843.0000,11603.0000,0.2571,0.7975,-0.0098,-0.5456,143.6300,-46.9900,-97.3900,6.5800,-1.2500,15.2500,0.0000,0.0000,-0.0000,1886.0000,1126.0000,1500.0000,2000.0000
187086.0800,2.0000,2000.0000,1000.0000,1501.0000,74.0000,-97.0000,-33.0000,1247.0000,-715.0000,10707.0000,0.2479,0.7913,-0.0147,-0.5587,143.7800,-47.0300,-97.1000,6.0700,-1.0300,15.8400,0.0000,0.0000,-0.0000,1878.0000,1121.0000,1500.0000,2000.0000
187102.7900,2.0000,2000.0000,1000.0000,1502.0000,91.0000,-75.0000,-48.0000,1209.0000,-785.0000,9532.0000,0.2355,0.7872,-0.0187,-0.5696,143.9200,-47.0500,-96.7900,5.6200,-0.8900,16.3500,0.0000,0.0000,-0.0000,1878.0000,1121.0000,1500.0000,2000.0000
187119.4790,2.0000,2000.0000,1000.0000,1502.0000,109.0000,-68.0000,-59.0000,977.0000,-702.0000,8197.0000,0.2202,0.7848,-0.0220,-0.5789,144.0800,-47.0800,-96.4800,5.3600,-0.7200,16.8000,0.0000,0.0000,-0.0000,1878.0000,1121.0000,1500.0000,2000.0000
187136.2810,2.0000,2000.0000,1000.0000,1502.0000,127.0000,-71.0000,-69.0000,843.0000,-542.0000,7105.0000,0.2019,0.7828,-0.0256,-0.5881,144.0800,-47.0800,-96.4800,5.3600,-0.7200,16.8000,0.0000,0.0000,-0.0000,1878.0000,1121.0000,1500.0000,2000.0000
187152.9570,2.0000,2000.0000,1000.0000,1502.0000,142.0000,-81.0000,-78.0000,783.0000,-536.0000,6374.0000,0.1806,0.7804,-0.0299,-0.5979,144.2400,-47.1000,-96.1700,5.2500,-0.6200,17.1700,0.0000,0.0000,-0.0000,1878.0000,1121.0000,1500.0000,2000.0000
187169.9550,2.0000,2000.0000,1000.0000,1502.0000,158.0000,-89.0000,-81.0000,824.0000,-1040.0000,6058.0000,0.1566,0.7770,-0.0351,-0.6088,144.3900,-47.1200,-95.8600,5.2300,-0.5900,17.5000,0.0000,0.0000,-0.0000,1878.0000,1121.0000,1500.0000,2000.0000
187186.7350,2.0000,2000.0000,1000.0000,1502.0000,177.0000,-108.0000,-86.0000,712.0000,-1378.0000,6002.0000,0.1303,0.7721,-0.0417,-0.6206,144.5400,-47.1400,-95.5400,5.2400,-0.6400,17.8300,0.0000,0.0000,-0.0000,1878.0000,1121.0000,1500.0000,2000.0000
187203.3680,2.0000,2000.0000,1451.0000,2000.0000,190.0000,-111.0000,-83.0000,638.0000,-1125.0000,6259.0000,0.1022,0.7659,-0.0495,-0.6329,144.6800,-47.1700,-95.2200,5.2400,-0.7600,18.1600,0.0000,0.0000,-0.0000,1109.0000,1060.0000,1500.0000,2000.0000
187220.1660,2.0000,2000.0000,1451.0000,2000.0000,200.0000,-121.0000,-79.0000,570.0000,-1191.0000,6557.0000,0.0729,0.7582,-0.0590,-0.6452,144.8600,-47.1900,-94.8900,5.1900,-0.8200,18.4700,0.0000,0.0000,-0.0000,1109.0000,1060.0000,1500.0000,2000.0000
187236.8000,2.0000,2000.0000,1451.0000,2000.0000,180.0000,-131.0000,-69.0000,455.0000,-1205.0000,6988.0000,0.0443,0.7486,-0.0690,-0.6579,144.8600,-47.1900,-94.8900,5.1900,-0.8200,18.4700,0.0000,0.0000,-0.0000,1109.0000,1060.0000,1500.0000,2000.0000
187253.5400,2.0000,2000.0000,1451.0000,2000.0000,118.0000,-143.0000,-48.0000,674.0000,-1276.0000,7830.0000,0.0216,0.7368,-0.0767,-0.6714,145.0300,-47.2200,-94.5500,5.0800,-0.9200,18.7600,0.0000,0.0000,-0.0000,1109.0000,1060.0000,1500.0000,2000.0000
187270.2350,2.0000,2000.0000,1451.0000,2000.0000,29.0000,-149.0000,-20.0000,912.0000,-1661.0000,8662.0000,0.0101,0.7231,-0.0791,-0.6861,145.2000,-47.2400,-94.2100,4.9100,-1.0600,19.0500,0.0000,0.0000,-0.0000,1109.0000,1060.0000,1500.0000,2000.0000
187287.1230,2.0000,2000.0000,1000.0000,1869.0000,-40.0000,-157.0000,11.0000,877.0000,-1668.0000,9172.0000,0.0099,0.7077,-0.0768,-0.7023,145.3500,-47.2700,-93.8600,4.6300,-1.2500,19.3300,0.0000,0.0000,-0.0000,1576.0000,1057.0000,1500.0000,2000.0000
187303.5670,2.0000,2000.0000,1000.0000,1869.0000,-79.0000,-159.0000,33.0000,903.0000,-1591.0000,9932.0000,0.0181,0.6912,-0.0718,-0.7188,145.4900,-47.3100,-93.5100,4.2800,-1.4400,19.5800,0.0000,0.0000,-0.0000,1576.0000,1057.0000,1500.0000,2000.0000
187320.4430,2.0000,2000.0000,1000.0000,1869.0000,-82.0000,-170.0000,44.0000,905.0000,-1702.0000,10155.0000,0.0303,0.6730,-0.0662,-0.7360,145.6400,-47.3400,-93.1600,3.8000,-1.5400,19.7600,0.0000,0.0000,-0.0000,1576.0000,1057.0000,1500.0000,2000.0000
187337.4260,2.0000,2000.0000,1000.0000,1869.0000,-65.0000,-183.0000,46.0000,886.0000,-1433.0000,10366.0000,0.0420,0.6527,-0.0625,-0.7539,145.6400,-47.3400,-93.1600,3.8000,-1.5400,19.7600,0.0000,0.0000,-0.0000,1576.0000,1057.0000,1500.0000,2000.0000
187354.3180,2.0000,2000.0000,1000.0000,1869.0000,-41.0000,-199.0000,36.0000,856.0000,-1202.0000,11120.0000,0.0508,0.6304,-0.0610,-0.7722,145.7800,-47.3800,-92.8100,3.3000,-1.6100,19.8800,0.0000,0.0000,-0.0000,1576.0000,1057.0000,1500.0000,2000.0000
187371.3650,2.0000,2000.0000,1000.0000,1636.0000,-26.0000,-209.0000,27.0000,970.0000,-1061.0000,12070.0000,0.0564,0.6062,-0.0611,-0.7910,145.9100,-47.4100,-92.4500,2.7600,-1.6300,19.9200,0.0000,0.0000,-0.0000,1826.0000,1086.0000,1500.0000,2000.0000
187387.9390,2.0000,2000.0000,1000.0000,1589.0000,-20.0000,-209.0000,16.0000,1098.0000,-1220.0000,13023.0000,0.0596,0.5816,-0.0616,-0.8090,146.0100,-47.4400,-92.0900,2.1200,-1.6300,19.8600,0.0000,0.0000,-0.0000,1826.0000,1086.0000,1500.0000,2000.0000
187404.6500,2.0000,2000.0000,1000.0000,1589.0000,-20.0000,-201.0000,7.0000,1226.0000,-962.0000,14008.0000,0.0616,0.5568,-0.0613,-0.8261,146.1000,-47.4800,-91.7300,1.4200,-1.6500,19.7000,0.0000,0.0000,-0.0000,1826.0000,1086.0000,1500.0000,2000.0000
187421.6270,2.0000,2000.0000,1000.0000,1589.0000,2.0000,-184.0000,-10.0000,1382.0000,-900.0000,14911.0000,0.0611,0.5330,-0.0615,-0.8417,146.1900,-47.5100,-91.3900,0.5700,-1.6200,19.4100,0.0000,0.0000,-0.0000,1826.0000,1086.0000,1500.0000,2000.0000
187438.7910,2.0000,2000.0000,1000.0000,1589.0000,17.0000,-159.0000,-27.0000,1427.0000,-1062.0000,15239.0000,0.0571,0.5115,-0.0624,-0.8551,146.1900,-47.5100,-91.3900,0.5700,-1.6200,19.4100,0.0000,0.0000,-0.0000,1826.0000,1086.0000,1500.0000,2000.0000
187455.5840,2.0000,2000.0000,1000.0000,1589.0000,29.0000,-128.0000,-44.0000,1268.0000,-1083.0000,14871.0000,0.0499,0.4942,-0.0636,-0.8656,146.2500,-47.5300,-91.0400,-0.3100,-1.6100,19.0100,0.0000,0.0000,-0.0000,1826.0000,1086.0000,1500.0000,2000.0000
187472.1250,2.0000,2000.0000,1000.0000,1589.0000,45.0000,-109.0000,-57.0000,1127.0000,-968.0000,13744.0000,0.0403,0.4802,-0.0649,-0.8738,146.3000,-47.5600,-90.7100,-1.1100,-1.6300,18.5500,0.0000,0.0000,-0.0000,1826.0000,1086.0000,1500.0000,2000.0000
187488.8590,2.0000,2000.0000,1000.0000,1651.0000,57.0000,-99.0000,-74.0000,1010.0000,-841.0000,12440.0000,0.0275,0.4679,-0.0670,-0.8808,146.3300,-47.5900,-90.3800,-1.7500,-1.6700,18.0800,0.0000,0.0000,-0.0000,1771.0000,1073.0000,1500.0000,2000.0000
187505.5770,2.0000,2000.0000,1000.0000,1657.0000,77.0000,-97.0000,-85.0000,956.0000,-1079.0000,11567.0000,0.0119,0.4564,-0.0705,-0.8869,146.3400,-47.6200,-90.0700,-2.2000,-1.7100,17.6400,0.0000,0.0000,-0.0000,1771.0000,1073.0000,1500.0000,2000.0000
187522.5920,2.0000,2000.0000,1000.0000,1657.0000,94.0000,-101.0000,-87.0000,919.0000,-1444.0000,10934.0000,-0.0061,0.4444,-0.0761,-0.8926,146.3700,-47.6600,-89.7700,-2.6000,-1.8800,17.2300,0.0000,0.0000,-0.0000,1771.0000,1073.0000,1500.0000,2000.0000
187539.4550,2.0000,2000.0000,1000.0000,1657.0000,104.0000,-110.0000,-84.0000,803.0000,-1366.0000,10942.0000,-0.0251,0.4313,-0.0832,-0.8980,146.3700,-47.6600,-89.7700,-2.6000,-1.8800,17.2300,0.0000,0.0000,-0.0000,1771.0000,1073.0000,1500.0000,2000.0000
187556.2300,2.0000,2000.0000,1000.0000,1657.0000,113.0000,-120.0000,-78.0000,780.0000,-1392.0000,11067.0000,-0.0442,0.4164,-0.0920,-0.9034,146.3800,-47.6900,-89.4800,-2.9200,-2.1000,16.8100,0.0000,0.0000,-0.0000,1771.0000,1073.0000,1500.0000,2000.0000
187572.9630,2.0000,2000.0000,1000.0000,1657.0000,116.0000,-130.0000,-71.0000,829.0000,-1518.0000,11227.0000,-0.0628,0.3999,-0.1017,-0.9087,146.3900,-47.7400,-89.2000,-3.2000,-2.3400,16.3700,0.0000,0.0000,-0.0000,1771.0000,1073.0000,1500.0000,2000.0000
187589.4670,2.0000,2000.0000,1504.0000,2000.0000,123.0000,-138.0000,-59.0000,877.0000,-1703.0000,11310.0000,-0.0804,0.3820,-0.1128,-0.9137,146.3900,-47.7800,-88.9300,-3.4300,-2.6200,15.8900,0.0000,0.0000,-0.0000,1042.0000,1054.0000,1500.0000,2000.0000
187606.1490,2.0000,2000.0000,1512.0000,2000.0000,129.0000,-148.0000,-48.0000,836.0000,-1708.0000,11745.0000,-0.0969,0.3622,-0.1249,-0.9186,146.3900,-47.8300,-88.6600,-3.6100,-2.9700,15.3700,0.0000,0.0000,-0.0000,1042.0000,1054.0000,1500.0000,2000.0000
187622.9000,2.0000,2000.0000,1512.0000,2000.0000,122.0000,-155.0000,-36.0000,838.0000,-1658.0000,12141.0000,-0.1118,0.3405,-0.1373,-0.9234,146.3900,-47.8300,-88.6600,-3.6100,-2.9700,15.3700,0.0000,0.0000,-0.0000,1042.0000,1054.0000,1500.0000,2000.0000
187639.9760,2.0000,2000.0000,1512.0000,2000.0000,81.0000,-157.0000,-18.0000,975.0000,-1699.0000,12693.0000,-0.1239,0.3178,-0.1474,-0.9284,146.3700,-47.9000,-88.4100,-4.0600,-3.3400,14.7800,0.0000,0.0000,-0.0000,1042.0000,1054.0000,1500.0000,2000.0000
187656.7120,2.0000,2000.0000,1512.0000,2000.0000,16.0000,-153.0000,4.0000,1095.0000,-1810.0000,13278.0000,-0.1305,0.2959,-0.1509,-0.9342,146.3400,-47.9700,-88.1700,-4.4700,-3.7400,14.1300,0.0000,0.0000,-0.0000,1042.0000,1054.0000,1500.0000,2000.0000
187673.5070,2.0000,2000.0000,1512.0000,2000.0000,-53.0000,-141.0000,27.0000,1130.0000,-1820.0000,13798.0000,-0.1308,0.2757,-0.1458,-0.9411,146.3000,-48.0400,-87.9400,-4.8600,-4.1900,13.3900,0.0000,0.0000,-0.0000,1042.0000,1054.0000,1500.0000,2000.0000
187690.5490,2.0000,2000.0000,1000.0000,1744.0000,-112.0000,-121.0000,47.0000,1096.0000,-1608.0000,13951.0000,-0.1251,0.2579,-0.1331,-0.9487,146.2600,-48.1300,-87.7300,-5.2200,-4.6200,12.5700,0.0000,0.0000,-0.0000,1680.0000,1078.0000,1500.0000,2000.0000
187707.4120,2.0000,2000.0000,1000.0000,1744.0000,-153.0000,-104.0000,59.0000,1053.0000,-1334.0000,13490.0000,-0.1149,0.2438,-0.1140,-0.9562,146.2100,-48.2200,-87.5400,-5.5500,-4.9600,11.7000,0.0000,0.0000,-0.0000,1680.0000,1078.0000,1500.0000,2000.0000
187724.2750,2.0000,2000.0000,1000.0000,1744.0000,-137.0000,-104.0000,57.0000,922.0000,-1238.0000,12232.0000,-0.1039,0.2306,-0.0935,-0.9630,146.2100,-48.2200,-87.5400,-5.5500,-4.9600,11.7000,0.0000,0.0000,-0.0000,1680.0000,1078.0000,1500.0000,2000.0000
187741.0790,2.0000,2000.0000,1000.0000,1744.0000,-93.0000,-120.0000,43.0000,768.0000,-961.0000,11435.0000,-0.0953,0.2159,-0.0775,-0.9686,146.1200,-48.3200,-87.3700,-6.0900,-5.2100,10.8500,0.0000,0.0000,-0.0000,1680.0000,1078.0000,1500.0000,2000.0000
187757.5530,2.0000,2000.0000,1000.0000,1744.0000,-48.0000,-140.0000,23.0000,621.0000,-761.0000,11207.0000,-0.0907,0.1981,-0.0673,-0.9737,146.0400,-48.4200,-87.2100,-6.5300,-5.3300,10.0400,0.0000,0.0000,-0.0000,1680.0000,1078.0000,1500.0000,2000.0000
187774.2970,2.0000,2000.0000,1000.0000,1685.0000,-13.0000,-160.0000,3.0000,681.0000,-511.0000,11336.0000,-0.0905,0.1767,-0.0620,-0.9781,145.9400,-48.5200,-87.0800,-6.8800,-5.3600,9.2400,0.0000,0.0000,-0.0000,1801.0000,1221.0000,1500.0000,2000.0000
187790.8840,2.0000,2000.0000,1000.0000,1479.0000,1.0000,-171.0000,-15.0000,809.0000,-616.0000,12284.0000,-0.0937,0.1531,-0.0591,-0.9820,145.8400,-48.6200,-86.9600,-7.1800,-5.3600,8.4000,0.0000,0.0000,-0.0000,1801.0000,1221.0000,1500.0000,2000.0000
187807.3440,2.0000,2000.0000,1000.0000,1479.0000,4.0000,-168.0000,-27.0000,1014.0000,-795.0000,13333.0000,-0.0990,0.1293,-0.0566,-0.9850,145.7400,-48.7200,-86.8600,-7.4500,-5.3800,7.4400,0.0000,0.0000,-0.0000,1801.0000,1221.0000,1500.0000,2000.0000
187824.1880,2.0000,2000.0000,1000.0000,1479.0000,28.0000,-151.0000,-42.0000,1204.0000,-963.0000,14362.0000,-0.1064,0.1059,-0.0556,-0.9871,145.7400,-48.7200,-86.8600,-7.4500,-5.3800,7.4400,0.0000,0.0000,-0.0000,1801.0000,1221.0000,1500.0000,2000.0000
187841.1510,2.0000,2000.0000,1000.0000,1479.0000,62.0000,-132.0000,-58.0000,1312.0000,-967.0000,14689.0000,-0.1164,0.0847,-0.0591,-0.9878,145.6400,-48.8100,-86.7900,-7.6800,-5.4200,6.3400,0.0000,0.0000,-0.0000,1801.0000,1221.0000,1500.0000,2000.0000
187857.9980,2.0000,2000.0000,1000.0000,1479.0000,90.0000,-111.0000,-68.0000,1254.0000,-925.0000,14339.0000,-0.1280,0.0662,-0.0675,-0.9873,145.5300,-48.9100,-86.7300,-7.8600,-5.4900,5.1600,0.0000,0.0000,-0.0000,1801.0000,1221.0000,1500.0000,2000.0000
187874.4170,2.0000,2000.0000,1000.0000,1479.0000,112.0000,-90.0000,-74.0000,1159.0000,-1155.0000,13544.0000,-0.1404,0.0510,-0.0792,-0.9856,145.4200,-49.0000,-86.7000,-7.9600,-5.5800,4.0000,0.0000,0.0000,-0.0000,1801.0000,1221.0000,1500.0000,2000.0000
187891.4400,2.0000,2000.0000,1146.0000,1590.0000,132.0000,-72.0000,-80.0000,987.0000,-1279.0000,12271.0000,-0.1536,0.0377,-0.0949,-0.9828,145.3200,-49.0900,-86.6900,-7.9600,-5.6900,2.9300,0.0000,0.0000,-0.0000,1051.0000,1474.0000,1500.0000,2000.0000
187908.3970,2.0000,2000.0000,1924.0000,1974.0000,158.0000,-65.0000,-82.0000,799.0000,-1255.0000,10831.0000,-0.1672,0.0257,-0.1141,-0.9790,145.2200,-49.1900,-86.7000,-7.8700,-5.8100,2.0200,0.0000,0.0000,-0.0000,1051.0000,1474.0000,1500.0000,2000.0000
187925.7250,2.0000,2000.0000,1924.0000,1974.0000,168.0000,-65.0000,-82.0000,662.0000,-1176.0000,9581.0000,-0.1808,0.0133,-0.1364,-0.9739,145.2200,-49.1900,-86.7000,-7.8700,-5.8100,2.0200,0.0000,0.0000,-0.0000,1051.0000,1474.0000,1500.0000,2000.0000
187942.7690,2.0000,2000.0000,1924.0000,1974.0000,129.0000,-77.0000,-74.0000,676.0000,-1177.0000,9382.0000,-0.1938,0.0007,-0.1562,-0.9685,145.1200,-49.2800,-86.7400,-7.7100,-5.8900,1.2600,0.0000,0.0000,-0.0000,1051.0000,1474.0000,1500.0000,2000.0000
187959.5970,2.0000,2000.0000,1924.0000,1974.0000,59.0000,-88.0000,-55.0000,689.0000,-1410.0000,9247.0000,-0.2051,-0.0121,-0.1672,-0.9643,145.0500,-49.3700,-86.8000,-7.5000,-5.9600,0.6100,0.0000,0.0000,-0.0000,1051.0000,1474.0000,1500.0000,2000.0000
187976.6550,2.0000,2000.0000,1924.0000,1974.0000,-36.0000,-93.0000,-28.0000,660.0000,-1677.0000,9119.0000,-0.2134,-0.0247,-0.1658,-0.9625,144.9800,-49.4500,-86.8700,-7.2400,-6.0300,-0.0200,0.0000,0.0000,-0.0000,1051.0000,1474.0000,1500.0000,2000.0000
187993.4830,2.0000,2000.0000,2000.0000,1805.0000,-135.0000,-69.0000,1.0000,598.0000,-1658.0000,9978.0000,-0.2177,-0.0334,-0.1511,-0.9637,144.9200,-49.5400,-86.9500,-6.9500,-6.1200,-0.6400,0.0000,0.0000,-0.0000,1072.0000,1625.0000,1500.0000,2000.0000
188010.2270,2.0000,2000.0000,2000.0000,1805.0000,-238.0000,-18.0000,25.0000,528.0000,-1370.0000,11032.0000,-0.2179,-0.0344,-0.1231,-0.9676,144.8600,-49.6200,-87.0500,-6.6500,-6.1700,-1.3800,0.0000,0.0000,-0.0000,1072.0000,1625.0000,1500.0000,2000.0000
188026.7500,2.0000,2000.0000,2000.0000,1805.0000,-319.0000,40.0000,44.0000,474.0000,-1279.0000,10574.0000,-0.2144,-0.0244,-0.0837,-0.9728,144.8600,-49.6200,-87.0500,-6.6500,-6.1700,-1.3800,0.0000,0.0000,-0.0000,1072.0000,1625.0000,1500.0000,2000.0000
188043.9760,2.0000,2000.0000,2000.0000,1805.0000,-414.0000,112.0000,60.0000,211.0000,-963.0000,8026.0000,-0.2072,-0.0018,-0.0325,-0.9778,144.8200,-49.7000,-87.1800,-6.3800,-6.1200,-2.2200,0.0000,0.0000,-0.0000,1072.0000,1625.0000,1500.0000,2000.0000
188060.5360,2.0000,2000.0000,2000.0000,1805.0000,-473.0000,164.0000,70.0000,125.0000,-538.0000,4503.0000,-0.1975,0.0307,0.0266,-0.9795,144.7900,-49.7700,-87.3200,-6.1800,-5.8900,-2.8800,0.0000,0.0000,-0.0000,1072.0000,1625.0000,1500.0000,2000.0000
188077.6070,2.0000,2000.0000,1199.0000,1073.0000,-511.0000,203.0000,77.0000,-39.0000,-84.0000,764.0000,-0.1852,0.0726,0.0928,-0.9756,144.7900,-49.8200,-87.4900,-6.0300,-5.4700,-3.1800,0.0000,0.0000,-0.0000,1866.0000,1565.0000,1500.0000,2000.0000
188094.5480,2.0000,2000.0000,1198.0000,1072.0000,-525.0000,230.0000,75.0000,75.0000,511.0000,-2571.0000,-0.1717,0.1192,0.1606,-0.9646,144.8200,-49.8400,-87.6800,-5.8400,-4.9300,-3.0500,0.0000,0.0000,-0.0000,1866.0000,1565.0000,1500.0000,2000.0000
188111.3630,2.0000,2000.0000,1198.0000,1072.0000,-505.0000,222.0000,60.0000,139.0000,1256.0000,-5210.0000,-0.1584,0.1655,0.2260,-0.9468,144.8900,-49.8300,-87.9000,-5.5500,-4.3500,-2.5800,0.0000,0.0000,-0.0000,1866.0000,1565.0000,1500.0000,2000.0000
188128.1960,2.0000,2000.0000,1198.0000,1072.0000,-430.0000,204.0000,35.0000,265.0000,1654.0000,-7078.0000,-0.1478,0.2077,0.2842,-0.9242,144.8900,-49.8300,-87.9000,-5.5500,-4.3500,-2.5800,0.0000,0.0000,-0.0000,1866.0000,1565.0000,1500.0000,2000.0000
188144.9610,2.0000,2000.0000,1198.0000,1072.0000,-303.0000,171.0000,3.0000,433.0000,1299.0000,-8107.0000,-0.1419,0.2419,0.3284,-0.9019,144.9700,-49.8000,-88.1000,-5.1600,-3.9200,-1.9200,0.0000,0.0000,-0.0000,1866.0000,1565.0000,1500.0000,2000.0000
188161.7940,2.0000,2000.0000,1198.0000,1072.0000,-132.0000,150.0000,-39.0000,377.0000,1256.0000,-8131.0000,-0.1445,0.2664,0.3542,-0.8847,145.0500,-49.7700,-88.2800,-4.7200,-3.6900,-1.2900,0.0000,0.0000,-0.0000,1866.0000,1565.0000,1500.0000,2000.0000
188178.7240,2.0000,2000.0000,1198.0000,1072.0000,70.0000,122.0000,-75.0000,451.0000,1177.0000,-8149.0000,-0.1585,0.2821,0.3569,-0.8763,145.1400,-49.7400,-88.4400,-4.2700,-3.5500,-0.7500,0.0000,0.0000,-0.0000,1866.0000,1565.0000,1500.0000,2000.0000
188195.7650,2.0000,2000.0000,1290.0000,1000.0000,216.0000,92.0000,-107.0000,91.0000,1235.0000,-8165.0000,-0.1826,0.2874,0.3388,-0.8771,145.2300,-49.7100,-88.6000,-3.8600,-3.4300,-0.2500,0.0000,0.0000,-0.0000,1876.0000,1667.0000,1500.0000,2000.0000
188212.6840,2.0000,2000.0000,1290.0000,1000.0000,315.0000,45.0000,-124.0000,-346.0000,881.0000,-7912.0000,-0.2123,0.2824,0.3068,-0.8838,145.2000,-49.7100,-88.7600,-3.9200,-3.4300,0.1900,0.0000,0.0000,-0.0000,1876.0000,1667.0000,1500.0000,2000.0000
188229.5480,2.0000,2000.0000,1290.0000,1000.0000,403.0000,10.0000,-120.0000,-53.0000,149.0000,-6738.0000,-0.2440,0.2686,0.2638,-0.8937,145.2000,-49.7100,-88.7600,-3.9200,-3.4300,0.1900,0.0000,0.0000,-0.0000,1876.0000,1667.0000,1500.0000,2000.0000
188246.5430,2.0000,2000.0000,1290.0000,1000.0000,458.0000,-5.0000,-103.0000,86.0000,-615.0000,-4254.0000,-0.2753,0.2477,0.2108,-0.9047,144.5700,-49.9000,-88.9200,-6.2400,-4.1800,0.5700,0.0000,0.0000,-0.0000,1876.0000,1667.0000,1500.0000,2000.0000
188263.4180,2.0000,2000.0000,1290.0000,1000.0000,488.0000,12.0000,-80.0000,238.0000,-1074.0000,-1795.0000,-0.3040,0.2254,0.1499,-0.9134,143.9300,-50.0900,-89.0900,-8.4100,-4.7900,0.9000,0.0000,0.0000,-0.0000,1876.0000,1667.0000,1500.0000,2000.0000
188280.1970,2.0000,2000.0000,2000.0000,1626.0000,515.0000,39.0000,-48.0000,33.0000,-1413.0000,203.0000,-0.3278,0.2038,0.0837,-0.9187,143.2800,-50.2800,-89.2500,-10.4200,-5.2700,1.1200,0.0000,0.0000,-0.0000,1039.0000,1804.0000,1500.0000,2000.0000
188297.0170,2.0000,2000.0000,2000.0000,1658.0000,538.0000,80.0000,0.0000,-81.0000,-1834.0000,1303.0000,-0.3450,0.1856,0.0111,-0.9200,142.6400,-50.4600,-89.3900,-12.1900,-5.6700,1.3000,0.0000,0.0000,-0.0000,1039.0000,1804.0000,1500.0000,2000.0000
188313.7110,2.0000,2000.0000,2000.0000,1658.0000,537.0000,129.0000,43.0000,402.0000,-2142.0000,1469.0000,-0.3541,0.1721,-0.0665,-0.9168,141.9800,-50.6500,-89.5100,-13.7000,-6.0900,1.4400,0.0000,0.0000,-0.0000,1039.0000,1804.0000,1500.0000,2000.0000
188330.4980,2.0000,2000.0000,2000.0000,1658.0000,466.0000,182.0000,88.0000,721.0000,-1821.0000,622.0000,-0.3534,0.1659,-0.1437,-0.9094,141.9800,-50.6500,-89.5100,-13.7000,-6.0900,1.4400,0.0000,0.0000,-0.0000,1039.0000,1804.0000,1500.0000,2000.0000
188347.2980,2.0000,2000.0000,2000.0000,1658.0000,319.0000,221.0000,133.0000,910.0000,-1125.0000,-1930.0000,-0.3421,0.1699,-0.2092,-0.9002,141.2300,-50.8800,-89.6200,-15.0300,-6.6000,1.6600,0.0000,0.0000,-0.0000,1039.0000,1804.0000,1500.0000,2000.0000
188364.0990,2.0000,2000.0000,2000.0000,1658.0000,92.0000,233.0000,172.0000,856.0000,-683.0000,-5042.0000,-0.3191,0.1847,-0.2514,-0.8949,140.5100,-51.1000,-89.7100,-16.1400,-6.8900,2.0600,0.0000,0.0000,-0.0000,1039.0000,1804.0000,1500.0000,2000.0000
188380.7960,2.0000,1277.0000,1200.0000,1000.0000,-102.0000,223.0000,200.0000,606.0000,-73.0000,-7827.0000,-0.2851,0.2086,-0.2648,-0.8973,139.8000,-51.3100,-89.7900,-17.0700,-6.8900,2.6500,0.0000,0.0000,-0.0000,1951.0000,1647.0000,1500.0000,1313.0000
188397.5790,2.0000,1274.0000,1195.0000,1000.0000,-221.0000,181.0000,206.0000,330.0000,524.0000,-10122.0000,-0.2445,0.2340,-0.2565,-0.9053,139.1300,-51.5000,-89.8500,-17.7500,-6.6300,3.3800,0.0000,0.0000,-0.0000,1951.0000,1647.0000,1500.0000,1313.0000
188414.2900,2.0000,1274.0000,1195.0000,1000.0000,-272.0000,127.0000,196.0000,-69.0000,1187.0000,-10383.0000,-0.2031,0.2554,-0.2348,-0.9156,138.4600,-51.6900,-89.9100,-18.1800,-6.3000,3.9400,0.0000,0.0000,-0.0000,1951.0000,1647.0000,1500.0000,1313.0000
188430.9920,2.0000,1274.0000,1195.0000,1000.0000,-251.0000,83.0000,171.0000,-395.0000,1532.0000,-8549.0000,-0.1653,0.2702,-0.2090,-0.9252,138.4600,-51.6900,-89.9100,-18.1800,-6.3000,3.9400,0.0000,0.0000,-0.0000,1951.0000,1647.0000,1500.0000,1313.0000
188447.9420,2.0000,1274.0000,1195.0000,1000.0000,-149.0000,58.0000,131.0000,-557.0000,1681.0000,-6058.0000,-0.1346,0.2797,-0.1889,-0.9317,137.7400,-51.9100,-89.9700,-18.4400,-6.2100,4.4500,0.0000,0.0000,-0.0000,1951.0000,1647.0000,1500.0000,1313.0000
188464.6860,2.0000,1274.0000,1195.0000,1000.0000,-34.0000,42.0000,76.0000,-878.0000,2275.0000,-4853.0000,-0.1159,0.2854,-0.1816,-0.9339,137.1000,-52.0900,-90.0100,-18.6200,-6.1900,4.8800,0.0000,0.0000,-0.0000,1951.0000,1647.0000,1500.0000,1313.0000
188481.3800,2.0000,1274.0000,1195.0000,1000.0000,123.0000,29.0000,26.0000,-1150.0000,2279.0000,-4924.0000,-0.1111,0.2881,-0.1909,-0.9318,136.5100,-52.2700,-90.0200,-18.7500,-6.1600,5.2800,0.0000,0.0000,-0.0000,1951.0000,1647.0000,1500.0000,1313.0000
188498.3620,2.0000,1000.0000,1000.0000,1721.0000,262.0000,15.0000,-11.0000,-1375.0000,1946.0000,-5355.0000,-0.1182,0.2878,-0.2185,-0.9249,135.9700,-52.4300,-90.0100,-18.7700,-6.0700,5.6600,0.0000,0.0000,-0.0000,1732.0000,1049.0000,1500.0000,1004.0000
188515.1370,2.0000,1000.0000,1000.0000,1721.0000,386.0000,-1.0000,-41.0000,-1550.0000,1859.0000,-5873.0000,-0.1359,0.2834,-0.2622,-0.9124,135.4500,-52.5800,-89.9700,-18.6900,-5.9400,6.0200,0.0000,0.0000,-0.0000,1732.0000,1049.0000,1500.0000,1004.0000
188532.0100,2.0000,1000.0000,1000.0000,1721.0000,453.0000,-33.0000,-68.0000,-1775.0000,1809.0000,-6422.0000,-0.1616,0.2742,-0.3157,-0.8939,135.4500,-52.5800,-89.9700,-18.6900,-5.9400,6.0200,0.0000,0.0000,-0.0000,1732.0000,1049.0000,1500.0000,1004.0000
188548.9170,2.0000,1000.0000,1000.0000,1721.0000,471.0000,-83.0000,-92.0000,-1773.0000,1847.0000,-6816.0000,-0.1938,0.2586,-0.3720,-0.8702,134.9200,-52.7500,-89.9200,-18.5800,-5.7800,6.3800,0.0000,0.0000,-0.0000,1732.0000,1049.0000,1500.0000,1004.0000
188565.8630,2.0000,1000.0000,1000.0000,1721.0000,436.0000,-140.0000,-114.0000,-1711.0000,1728.0000,-5596.0000,-0.2304,0.2365,-0.4229,-0.8439,134.4300,-52.9100,-89.8500,-18.4900,-5.5100,6.7100,0.0000,0.0000,-0.0000,1732.0000,1049.0000,1500.0000,1004.0000
188582.5570,2.0000,1000.0000,1000.0000,1721.0000,378.0000,-202.0000,-128.0000,-1593.0000,1432.0000,-2859.0000,-0.2695,0.2085,-0.4622,-0.8187,133.9500,-53.0500,-89.7800,-18.4900,-5.2900,6.9600,0.0000,0.0000,-0.0000,1732.0000,1049.0000,1500.0000,1004.0000
188599.2270,2.0000,2000.0000,1592.0000,1732.0000,292.0000,-243.0000,-137.0000,-1380.0000,870.0000,449.0000,-0.3098,0.1776,-0.4880,-0.7964,133.4800,-53.1900,-89.6900,-18.5600,-5.3600,7.1100,0.0000,0.0000,-0.0000,1337.0000,1429.0000,1500.0000,2000.0000
188616.0920,2.0000,2000.0000,1592.0000,1732.0000,201.0000,-265.0000,-134.0000,-1067.0000,27.0000,4434.0000,-0.3498,0.1463,-0.5005,-0.7783,133.4800,-53.1900,-89.6900,-18.5600,-5.3600,7.1100,0.0000,0.0000,-0.0000,1337.0000,1429.0000,1500.0000,2000.0000
188633.1580,2.0000,2000.0000,1592.0000,1732.0000,107.0000,-257.0000,-118.0000,-405.0000,-681.0000,8526.0000,-0.3863,0.1176,-0.5007,-0.7656,132.9800,-53.3400,-89.6000,-18.6200,-5.8600,7.2100,0.0000,0.0000,-0.0000,1337.0000,1429.0000,1500.0000,2000.0000
188650.1740,2.0000,2000.0000,1592.0000,1732.0000,34.0000,-214.0000,-97.0000,599.0000,-1282.0000,11845.0000,-0.4166,0.0952,-0.4931,-0.7578,132.4400,-53.5300,-89.5100,-18.6000,-6.8000,7.2200,0.0000,0.0000,-0.0000,1337.0000,1429.0000,1500.0000,2000.0000
188666.9540,2.0000,2000.0000,1592.0000,1732.0000,-29.0000,-167.0000,-74.0000,1367.0000,-1726.0000,13996.0000,-0.4394,0.0803,-0.4801,-0.7549,131.8700,-53.7600,-89.4200,-18.4600,-8.0900,7.1500,0.0000,0.0000,-0.0000,1337.0000,1429.0000,1500.0000,2000.0000
188684.0020,2.0000,2000.0000,1078.0000,1302.0000,-74.0000,-114.0000,-51.0000,1648.0000,-1833.0000,14276.0000,-0.4554,0.0727,-0.4641,-0.7562,131.3500,-54.0000,-89.3300,-18.2100,-9.4300,6.9900,0.0000,0.0000,-0.0000,1909.0000,1378.0000,1500.0000,2000.0000
188700.9280,2.0000,2000.0000,1000.0000,1213.0000,-104.0000,-65.0000,-29.0000,1567.0000,-1895.0000,13451.0000,-0.4647,0.0718,-0.4473,-0.7608,130.8700,-54.2400,-89.2300,-17.9100,-10.6100,6.7300,0.0000,0.0000,-0.0000,1909.0000,1378.0000,1500.0000,2000.0000
188717.9150,2.0000,2000.0000,1000.0000,1213.0000,-85.0000,-38.0000,-10.0000,1349.0000,-1701.0000,11707.0000,-0.4688,0.0745,-0.4325,-0.7666,130.8700,-54.2400,-89.2300,-17.9100,-10.6100,6.7300,0.0000,0.0000,-0.0000,1909.0000,1378.0000,1500.0000,2000.0000
188734.9300,2.0000,2000.0000,1000.0000,1213.0000,-5.0000,-31.0000,0.0000,1176.0000,-1701.0000,9587.0000,-0.4706,0.0746,-0.4246,-0.7699,130.4000,-54.5000,-89.1300,-17.6500,-11.5400,6.4300,0.0000,0.0000,-0.0000,1909.0000,1378.0000,1500.0000,2000.0000
188751.9430,2.0000,2000.0000,1000.0000,1213.0000,102.0000,-24.0000,5.0000,880.0000,-1649.0000,8245.0000,-0.4719,0.0682,-0.4281,-0.7677,129.9100,-54.7800,-89.0200,-17.4800,-12.1500,6.2100,0.0000,0.0000,-0.0000,1909.0000,1378.0000,1500.0000,2000.0000
188769.0090,2.0000,2000.0000,1000.0000,1213.0000,224.0000,-2.0000,2.0000,397.0000,-1369.0000,6943.0000,-0.4733,0.0553,-0.4460,-0.7576,129.4500,-55.0600,-88.9200,-17.3300,-12.5500,6.0700,0.0000,0.0000,-0.0000,1909.0000,1378.0000,1500.0000,2000.0000
188785.7350,2.0000,2000.0000,1482.0000,2000.0000,331.0000,17.0000,-1.0000,243.0000,-1010.0000,5560.0000,-0.4739,0.0371,-0.4776,-0.7389,129.0200,-55.3300,-88.8300,-17.2000,-12.7600,5.9900,0.0000,0.0000,-0.0000,1061.0000,1043.0000,1500.0000,2000.0000
188802.4770,2.0000,2000.0000,1482.0000,2000.0000,397.0000,34.0000,-8.0000,167.0000,-764.0000,3786.0000,-0.4727,0.0157,-0.5184,-0.7124,128.5900,-55.5900,-88.7500,-17.1100,-12.8000,6.0000,0.0000,0.0000,-0.0000,1061.0000,1043.0000,1500.0000,2000.0000
188819.5610,2.0000,2000.0000,1482.0000,2000.0000,394.0000,51.0000,-11.0000,265.0000,-526.0000,1816.0000,-0.4694,-0.0066,-0.5632,-0.6800,128.5900,-55.5900,-88.7500,-17.1100,-12.8000,6.0000,0.0000,0.0000,-0.0000,1061.0000,1043.0000,1500.0000,2000.0000
188836.1860,2.0000,2000.0000,1482.0000,2000.0000,310.0000,47.0000,-10.0000,294.0000,199.0000,107.0000,-0.4639,-0.0234,-0.6013,-0.6502,128.1400,-55.8500,-88.6700,-17.1200,-12.6000,6.1400,0.0000,0.0000,-0.0000,1061.0000,1043.0000,1500.0000,2000.0000
188853.3690,2.0000,2000.0000,1482.0000,2000.0000,172.0000,25.0000,1.0000,116.0000,234.0000,-1812.0000,-0.4597,-0.0358,-0.6272,-0.6278,127.6600,-56.1100,-88.5700,-17.2800,-12.1700,6.3400,0.0000,0.0000,-0.0000,1061.0000,1043.0000,1500.0000,2000.0000
188870.2740,2.0000,2000.0000,1482.0000,2000.0000,30.0000,-3.0000,23.0000,158.0000,81.0000,-2792.0000,-0.4567,-0.0421,-0.6368,-0.6198,127.1700,-56.3400,-88.4700,-17.5500,-11.5700,6.5600,0.0000,0.0000,-0.0000,1061.0000,1043.0000,1500.0000,2000.0000
188887.0020,2.0000,2000.0000,1187.0000,2000.0000,-74.0000,-44.0000,41.0000,219.0000,-119.0000,-2730.0000,-0.4558,-0.0451,-0.6324,-0.6247,126.7100,-56.5500,-88.3800,-17.8300,-10.9200,6.8000,0.0000,0.0000,-0.0000,1381.0000,1069.0000,1500.0000,2000.0000
188903.5330,2.0000,2000.0000,1187.0000,2000.0000,-148.0000,-81.0000,51.0000,20.0000,216.0000,-1623.0000,-0.4578,-0.0475,-0.6178,-0.6376,126.2700,-56.7400,-88.2800,-18.0300,-10.3700,7.0400,0.0000,0.0000,-0.0000,1381.0000,1069.0000,1500.0000,2000.0000
188920.3900,2.0000,2000.0000,1187.0000,2000.0000,-174.0000,-121.0000,52.0000,-224.0000,149.0000,9.0000,-0.4626,-0.0499,-0.5946,-0.6557,126.2700,-56.7400,-88.2800,-18.0300,-10.3700,7.0400,0.0000,0.0000,-0.0000,1381.0000,1069.0000,1500.0000,2000.0000
188937.0490,2.0000,2000.0000,1187.0000,2000.0000,-166.0000,-177.0000,40.0000,-264.0000,223.0000,2447.0000,-0.4722,-0.0566,-0.5671,-0.6725,125.8100,-56.9200,-88.1600,-18.0700,-10.0300,7.2300,0.0000,0.0000,-0.0000,1381.0000,1069.0000,1500.0000,2000.0000
188953.7320,2.0000,2000.0000,1187.0000,2000.0000,-156.0000,-228.0000,16.0000,-223.0000,239.0000,5187.0000,-0.4870,-0.0674,-0.5365,-0.6859,125.3200,-57.1200,-88.0100,-17.9200,-9.9400,7.3600,0.0000,0.0000,-0.0000,1381.0000,1069.0000,1500.0000,2000.0000
188970.6320,2.0000,2000.0000,1000.0000,1834.0000,-129.0000,-256.0000,1.0000,124.0000,-152.0000,9467.0000,-0.5064,-0.0822,-0.5036,-0.6951,124.8600,-57.3000,-87.8800,-17.5800,-10.0300,7.3500,0.0000,0.0000,-0.0000,1815.0000,1079.0000,1500.0000,2000.0000
188987.3230,2.0000,2000.0000,1000.0000,1607.0000,-115.0000,-243.0000,-16.0000,877.0000,-804.0000,13882.0000,-0.5262,-0.0981,-0.4729,-0.6998,124.4200,-57.4700,-87.7600,-16.9300,-10.3700,7.1100,0.0000,0.0000,-0.0000,1815.0000,1079.0000,1500.0000,2000.0000
189004.1800,2.0000,2000.0000,1000.0000,1607.0000,-103.0000,-226.0000,-26.0000,1505.0000,-910.0000,16698.0000,-0.5456,-0.1120,-0.4436,-0.7021,124.0200,-57.6400,-87.6800,-16.0400,-10.8900,6.6100,0.0000,0.0000,-0.0000,1815.0000,1079.0000,1500.0000,2000.0000
189021.0600,2.0000,2000.0000,1000.0000,1607.0000,-69.0000,-199.0000,-46.0000,1731.0000,-833.0000,18008.0000,-0.5642,-0.1246,-0.4176,-0.7013,124.0200,-57.6400,-87.6800,-16.0400,-10.8900,6.6100,0.0000,0.0000,-0.0000,1815.0000,1079.0000,1500.0000,2000.0000
189038.2500,2.0000,2000.0000,1000.0000,1607.0000,-18.0000,-164.0000,-69.0000,1609.0000,-781.0000,18329.0000,-0.5820,-0.1363,-0.3989,-0.6954,123.6300,-57.8500,-87.5800,-15.0400,-11.6100,5.9300,0.0000,0.0000,-0.0000,1815.0000,1079.0000,1500.0000,2000.0000
189054.9120,2.0000,2000.0000,1000.0000,1607.0000,1.0000,-125.0000,-90.0000,1379.0000,-893.0000,17403.0000,-0.5980,-0.1450,-0.3879,-0.6862,123.2300,-58.0900,-87.4800,-14.0000,-12.3500,5.1200,0.0000,0.0000,-0.0000,1815.0000,1079.0000,1500.0000,2000.0000
189071.4430,2.0000,2000.0000,1000.0000,1607.0000,12.0000,-93.0000,-104.0000,1131.0000,-910.0000,15940.0000,-0.6130,-0.1506,-0.3813,-0.6754,122.9000,-58.3300,-87.4100,-13.0300,-12.9100,4.3100,0.0000,0.0000,-0.0000,1815.0000,1079.0000,1500.0000,2000.0000
189088.1470,2.0000,2000.0000,1460.0000,2000.0000,36.0000,-63.0000,-119.0000,985.0000,-1072.0000,14384.0000,-0.6272,-0.1535,-0.3793,-0.6627,122.6000,-58.5800,-87.3500,-12.1700,-13.3100,3.6000,0.0000,0.0000,-0.0000,1084.0000,1045.0000,1500.0000,2000.0000
189104.9150,2.0000,2000.0000,1461.0000,2000.0000,62.0000,-48.0000,-129.0000,878.0000,-1030.0000,12683.0000,-0.6405,-0.1562,-0.3819,-0.6477,122.3400,-58.8300,-87.3100,-11.4400,-13.5800,3.0200,0.0000,0.0000,-0.0000,1084.0000,1045.0000,1500.0000,2000.0000
189121.5600,2.0000,2000.0000,1461.0000,2000.0000,62.0000,-55.0000,-128.0000,785.0000,-1213.0000,11040.0000,-0.6532,-0.1596,-0.3868,-0.6311,122.3400,-58.8300,-87.3100,-11.4400,-13.5800,3.0200,0.0000,0.0000,-0.0000,1084.0000,1045.0000,1500.0000,2000.0000
189138.9430,2.0000,2000.0000,1461.0000,2000.0000,30.0000,-62.0000,-107.0000,777.0000,-1393.0000,10472.0000,-0.6659,-0.1625,-0.3888,-0.6157,122.0800,-59.0900,-87.2600,-10.8300,-13.8100,2.5900,0.0000,0.0000,-0.0000,1084.0000,1045.0000,1500.0000,2000.0000
189155.5040,2.0000,2000.0000,1461.0000,2000.0000,-31.0000,-71.0000,-77.0000,594.0000,-1391.0000,9566.0000,-0.6774,-0.1631,-0.3845,-0.6055,121.8100,-59.3600,-87.2000,-10.2800,-14.0100,2.2700,0.0000,0.0000,-0.0000,1084.0000,1045.0000,1500.0000,2000.0000
189172.4220,2.0000,2000.0000,1461.0000,2000.0000,-84.0000,-92.0000,-46.0000,472.0000,-1568.0000,8600.0000,-0.6884,-0.1603,-0.3725,-0.6014,121.5600,-59.6400,-87.1500,-9.8000,-14.1200,2.0000,0.0000,0.0000,-0.0000,1084.0000,1045.0000,1500.0000,2000.0000
189189.3320,2.0000,2000.0000,1000.0000,1605.0000,-121.0000,-107.0000,-15.0000,428.0000,-1689.0000,8036.0000,-0.6983,-0.1565,-0.3538,-0.6023,121.3300,-59.9000,-87.1100,-9.4200,-14.1600,1.7900,0.0000,0.0000,-0.0000,1816.0000,1080.0000,1500.0000,2000.0000
189205.9560,2.0000,2000.0000,1000.0000,1605.0000,-136.0000,-125.0000,7.0000,343.0000,-1786.0000,8280.0000,-0.7067,-0.1522,-0.3305,-0.6067,121.1100,-60.1600,-87.0900,-9.0900,-14.1500,1.5600,0.0000,0.0000,-0.0000,1816.0000,1080.0000,1500.0000,2000.0000
189222.8030,2.0000,2000.0000,1000.0000,1605.0000,-92.0000,-140.0000,18.0000,388.0000,-1632.0000,8561.0000,-0.7138,-0.1523,-0.3060,-0.6113,121.1100,-60.1600,-87.0900,-9.0900,-14.1500,1.5600,0.0000,0.0000,-0.0000,1816.0000,1080.0000,1500.0000,2000.0000
189239.7850,2.0000,2000.0000,1000.0000,1605.0000,-26.0000,-161.0000,15.0000,435.0000,-1525.0000,9445.0000,-0.7198,-0.1601,-0.2846,-0.6126,120.8900,-60.4300,-87.0500,-8.6800,-14.2200,1.2900,0.0000,0.0000,-0.0000,1816.0000,1080.0000,1500.0000,2000.0000
189256.6410,2.0000,2000.0000,1000.0000,1605.0000,41.0000,-176.0000,5.0000,548.0000,-1156.0000,11094.0000,-0.7251,-0.1766,-0.2674,-0.6096,120.6700,-60.7200,-87.0000,-8.2300,-14.3300,0.9200,0.0000,0.0000,-0.0000,1816.0000,1080.0000,1500.0000,2000.0000
189273.3370,2.0000,2000.0000,1000.0000,1605.0000,82.0000,-179.0000,-1.0000,739.0000,-1379.0000,12956.0000,-0.7297,-0.1988,-0.2541,-0.6029,120.4700,-61.0000,-86.9700,-7.7100,-14.4100,0.3800,0.0000,0.0000,-0.0000,1816.0000,1080.0000,1500.0000,2000.0000
189290.3360,2.0000,2000.0000,1000.0000,1769.0000,94.0000,-175.0000,-6.0000,984.0000,-1627.0000,14314.0000,-0.7335,-0.2238,-0.2428,-0.5941,120.2900,-61.2700,-86.9700,-7.0700,-14.4200,-0.2900,0.0000,0.0000,-0.0000,1666.0000,1067.0000,1500.0000,2000.0000
189307.0350,2.0000,2000.0000,1000.0000,1769.0000,89.0000,-165.0000,-11.0000,1139.0000,-1329.0000,14826.0000,-0.7367,-0.2480,-0.2331,-0.5843,120.1100,-61.5700,-86.9600,-6.2800,-14.4900,-1.0500,0.0000,0.0000,-0.0000,1666.0000,1067.0000,1500.0000,2000.0000
189324.0110,2.0000,2000.0000,1000.0000,1769.0000,61.0000,-166.0000,-17.0000,1114.0000,-1144.0000,14439.0000,-0.7404,-0.2699,-0.2223,-0.5741,120.1100,-61.5700,-86.9600,-6.2800,-14.4900,-1.0500,0.0000,0.0000,-0.0000,1666.0000,1067.0000,1500.0000,2000.0000
189340.8880,2.0000,2000.0000,1000.0000,1769.0000,51.0000,-169.0000,-23.0000,984.0000,-1015.0000,14167.0000,-0.7450,-0.2891,-0.2093,-0.5635,119.9500,-61.8700,-86.9700,-5.4800,-14.5300,-1.8200,0.0000,0.0000,-0.0000,1666.0000,1067.0000,1500.0000,2000.0000
189357.9050,2.0000,2000.0000,1000.0000,1769.0000,34.0000,-165.0000,-31.0000,1016.0000,-979.0000,14245.0000,-0.7501,-0.3068,-0.1955,-0.5522,119.8100,-62.1700,-87.0000,-4.7500,-14.4800,-2.5500,0.0000,0.0000,-0.0000,1666.0000,1067.0000,1500.0000,2000.0000
189374.8510,2.0000,2000.0000,1000.0000,1689.0000,18.0000,-162.0000,-43.0000,966.0000,-938.0000,13833.0000,-0.7562,-0.3215,-0.1813,-0.5403,119.6900,-62.4600,-87.0500,-4.0600,-14.3300,-3.2700,0.0000,0.0000,-0.0000,1805.0000,1090.0000,1500.0000,2000.0000
189391.5560,2.0000,2000.0000,1000.0000,1606.0000,20.0000,-164.0000,-54.0000,977.0000,-899.0000,13331.0000,-0.7630,-0.3350,-0.1672,-0.5270,119.5800,-62.7400,-87.1200,-3.4200,-14.1100,-3.9600,0.0000,0.0000,-0.0000,1805.0000,1090.0000,1500.0000,2000.0000
189408.5590,2.0000,2000.0000,1000.0000,1606.0000,28.0000,-165.0000,-65.0000,1106.0000,-1103.0000,13451.0000,-0.7700,-0.3488,-0.1536,-0.5116,119.4800,-63.0400,-87.1800,-2.8200,-13.9800,-4.5800,0.0000,0.0000,-0.0000,1805.0000,1090.0000,1500.0000,2000.0000
189425.4680,2.0000,2000.0000,1000.0000,1606.0000,42.0000,-158.0000,-70.0000,1304.0000,-1320.0000,14193.0000,-0.7764,-0.3634,-0.1415,-0.4951,119.4800,-63.0400,-87.1800,-2.8200,-13.9800,-4.5800,0.0000,0.0000,-0.0000,1805.0000,1090.0000,1500.0000,2000.0000
189442.5740,2.0000,2000.0000,1000.0000,1606.0000,56.0000,-142.0000,-74.0000,1505.0000,-1677.0000,15114.0000,-0.7817,-0.3785,-0.1318,-0.4778,119.3900,-63.3500,-87.2400,-2.1900,-13.8200,-5.2000,0.0000,0.0000,-0.0000,1805.0000,1090.0000,1500.0000,2000.0000
189459.0790,2.0000,2000.0000,1000.0000,1606.0000,66.0000,-125.0000,-72.0000,1447.0000,-1691.0000,15172.0000,-0.7854,-0.3928,-0.1255,-0.4617,119.3200,-63.6400,-87.3200,-1.5000,-13.5600,-5.8600,0.0000,0.0000,-0.0000,1805.0000,1090.0000,1500.0000,2000.0000
189475.8700,2.0000,2000.0000,1000.0000,1606.0000,72.0000,-101.0000,-74.0000,1218.0000,-1520.0000,14668.0000,-0.7880,-0.4066,-0.1216,-0.4461,119.2600,-63.9300,-87.4200,-0.8200,-13.2100,-6.5000,0.0000,0.0000,-0.0000,1805.0000,1090.0000,1500.0000,2000.0000
189492.6200,2.0000,2000.0000,1000.0000,1670.0000,77.0000,-76.0000,-73.0000,961.0000,-1307.0000,13526.0000,-0.7895,-0.4195,-0.1209,-0.4315,119.2100,-64.2000,-87.5300,-0.2500,-12.8300,-7.0600,0.0000,0.0000,-0.0000,1746.0000,1086.0000,1500.0000,2000.0000
189509.3690,2.0000,2000.0000,1000.0000,1670.0000,94.0000,-60.0000,-74.0000,856.0000,-1567.0000,11924.0000,-0.7896,-0.4322,-0.1235,-0.4178,119.1700,-64.5000,-87.6300,0.2700,-12.6000,-7.4900,0.0000,0.0000,-0.0000,1746.0000,1086.0000,1500.0000,2000.0000
189526.1180,2.0000,2000.0000,1000.0000,1670.0000,103.0000,-51.0000,-71.0000,765.0000,-1628.0000,10294.0000,-0.7881,-0.4458,-0.1282,-0.4045,119.1700,-64.5000,-87.6300,0.2700,-12.6000,-7.4900,0.0000,0.0000,-0.0000,1746.0000,1086.0000,1500.0000,2000.0000
189543.2380,2.0000,2000.0000,1000.0000,1670.0000,99.0000,-49.0000,-64.0000,575.0000,-1469.0000,8801.0000,-0.7861,-0.4594,-0.1330,-0.3915,119.1300,-64.8100,-87.7200,0.6800,-12.5400,-7.7300,0.0000,0.0000,-0.0000,1746.0000,1086.0000,1500.0000,2000.0000
189560.1780,2.0000,2000.0000,1000.0000,1670.0000,95.0000,-49.0000,-54.0000,403.0000,-1241.0000,7331.0000,-0.7838,-0.4715,-0.1373,-0.3801,119.0900,-65.1200,-87.8100,0.9000,-12.6500,-7.8200,0.0000,0.0000,-0.0000,1746.0000,1086.0000,1500.0000,2000.0000
189577.1200,2.0000,2000.0000,1000.0000,1670.0000,97.0000,-67.0000,-49.0000,260.0000,-1505.0000,5694.0000,-0.7808,-0.4848,-0.1397,-0.3686,119.0500,-65.4200,-87.8800,0.9300,-12.9000,-7.8000,0.0000,0.0000,-0.0000,1746.0000,1086.0000,1500.0000,2000.0000
189593.8750,2.0000,2000.0000,1322.0000,2000.0000,108.0000,-94.0000,-47.0000,236.0000,-1079.0000,4427.0000,-0.7772,-0.4998,-0.1400,-0.3558,119.0100,-65.7300,-87.9400,0.8100,-13.2800,-7.6400,0.0000,0.0000,-0.0000,1287.0000,1110.0000,1500.0000,2000.0000
189610.4260,2.0000,2000.0000,1322.0000,2000.0000,107.0000,-127.0000,-44.0000,292.0000,-1004.0000,4571.0000,-0.7733,-0.5168,-0.1369,-0.3409,118.9600,-66.0900,-87.9500,0.7800,-13.7400,-7.4300,0.0000,0.0000,-0.0000,1287.0000,1110.0000,1500.0000,2000.0000
189627.1850,2.0000,2000.0000,1322.0000,2000.0000,73.0000,-160.0000,-31.0000,494.0000,-1052.0000,6154.0000,-0.7708,-0.5334,-0.1281,-0.3239,118.9600,-66.0900,-87.9500,0.7800,-13.7400,-7.4300,0.0000,0.0000,-0.0000,1287.0000,1110.0000,1500.0000,2000.0000
189644.0190,2.0000,2000.0000,1322.0000,2000.0000,10.0000,-181.0000,-9.0000,700.0000,-1226.0000,8184.0000,-0.7713,-0.5456,-0.1127,-0.3078,118.9100,-66.4700,-87.9600,0.8600,-14.0800,-7.2400,0.0000,0.0000,-0.0000,1287.0000,1110.0000,1500.0000,2000.0000
189660.9700,2.0000,2000.0000,1322.0000,2000.0000,-36.0000,-192.0000,11.0000,962.0000,-1624.0000,9661.0000,-0.7750,-0.5521,-0.0911,-0.2938,118.8700,-66.8400,-87.9600,1.0600,-14.1900,-7.1100,0.0000,0.0000,-0.0000,1287.0000,1110.0000,1500.0000,2000.0000
189677.6720,2.0000,2000.0000,1322.0000,2000.0000,-61.0000,-196.0000,25.0000,1107.0000,-1393.0000,11455.0000,-0.7802,-0.5547,-0.0661,-0.2814,118.8400,-67.1900,-87.9700,1.3400,-14.1000,-7.0200,0.0000,0.0000,-0.0000,1287.0000,1110.0000,1500.0000,2000.0000
189694.4080,2.0000,2000.0000,1016.0000,1146.0000,-78.0000,-191.0000,31.0000,1393.0000,-964.0000,12804.0000,-0.7860,-0.5546,-0.0393,-0.2703,118.8200,-67.5300,-87.9800,1.6400,-13.8100,-7.0400,0.0000,0.0000,-0.0000,1920.0000,1434.0000,1500.0000,2000.0000
189711.1090,2.0000,2000.0000,1016.0000,1146.0000,-80.0000,-184.0000,33.0000,1537.0000,-1299.0000,13625.0000,-0.7920,-0.5524,-0.0123,-0.2599,118.8200,-67.5300,-87.9800,1.6400,-13.8100,-7.0400,0.0000,0.0000,-0.0000,1920.0000,1434.0000,1500.0000,2000.0000
189728.0180,2.0000,2000.0000,1016.0000,1146.0000,-53.0000,-169.0000,25.0000,1535.0000,-1431.0000,14009.0000,-0.7962,-0.5509,0.0127,-0.2500,118.8200,-67.8900,-88.0000,2.1100,-13.2600,-7.1800,0.0000,0.0000,-0.0000,1920.0000,1434.0000,1500.0000,2000.0000
189745.1410,2.0000,2000.0000,1016.0000,1146.0000,-19.0000,-148.0000,12.0000,1573.0000,-1110.0000,14353.0000,-0.7977,-0.5522,0.0339,-0.2398,118.8400,-68.2200,-88.0300,2.5400,-12.6000,-7.3300,0.0000,0.0000,-0.0000,1920.0000,1434.0000,1500.0000,2000.0000
189761.7930,2.0000,2000.0000,1016.0000,1146.0000,25.0000,-119.0000,-6.0000,1614.0000,-1006.0000,14439.0000,-0.7964,-0.5571,0.0490,-0.2302,118.8700,-68.5200,-88.0800,2.9000,-11.8700,-7.5300,0.0000,0.0000,-0.0000,1920.0000,1434.0000,1500.0000,2000.0000
189778.6190,2.0000,2000.0000,1246.0000,1096.0000,105.0000,-67.0000,-25.0000,1465.0000,-870.0000,13913.0000,-0.7906,-0.5679,0.0557,-0.2221,118.9100,-68.8100,-88.1300,3.1800,-11.1200,-7.7400,0.0000,0.0000,-0.0000,1830.0000,1578.0000,1500.0000,2000.0000
189795.7010,2.0000,2000.0000,1247.0000,1095.0000,195.0000,-6.0000,-43.0000,1145.0000,-685.0000,12628.0000,-0.7783,-0.5870,0.0516,-0.2168,118.9500,-69.0600,-88.1800,3.4000,-10.4400,-7.8900,0.0000,0.0000,-0.0000,1830.0000,1578.0000,1500.0000,2000.0000
189812.6840,2.0000,2000.0000,1247.0000,1095.0000,273.0000,47.0000,-56.0000,924.0000,-507.0000,10394.0000,-0.7589,-0.6134,0.0366,-0.2153,119.0000,-69.3400,-88.2200,3.6100,-9.9100,-7.9200,0.0000,0.0000,-0.0000,1830.0000,1578.0000,1500.0000,2000.0000
189829.7370,2.0000,2000.0000,1247.0000,1095.0000,360.0000,93.0000,-65.0000,693.0000,-407.0000,7026.0000,-0.7309,-0.6471,0.0126,-0.2167,119.0000,-69.3400,-88.2200,3.6100,-9.9100,-7.9200,0.0000,0.0000,-0.0000,1830.0000,1578.0000,1500.0000,2000.0000
189846.5690,2.0000,2000.0000,1247.0000,1095.0000,418.0000,138.0000,-72.0000,212.0000,-22.0000,3114.0000,-0.6946,-0.6842,-0.0195,-0.2213,119.0600,-69.6200,-88.2300,3.7600,-9.7600,-7.7800,0.0000,0.0000,-0.0000,1830.0000,1578.0000,1500.0000,2000.0000
189863.3850,2.0000,2000.0000,1247.0000,1095.0000,456.0000,167.0000,-76.0000,457.0000,135.0000,-1121.0000,-0.6510,-0.7219,-0.0573,-0.2278,119.1100,-69.9200,-88.1800,3.7300,-10.1900,-7.4900,0.0000,0.0000,-0.0000,1830.0000,1578.0000,1500.0000,2000.0000
189880.1830,2.0000,2000.0000,2000.0000,1684.0000,464.0000,173.0000,-79.0000,385.0000,416.0000,-4802.0000,-0.6015,-0.7574,-0.0979,-0.2345,119.1400,-70.2500,-88.0500,3.4800,-11.2400,-7.1800,0.0000,0.0000,-0.0000,1046.0000,1770.0000,1500.0000,2000.0000
189896.8160,2.0000,2000.0000,2000.0000,1685.0000,455.0000,154.0000,-73.0000,363.0000,369.0000,-8011.0000,-0.5496,-0.7888,-0.1363,-0.2391,119.1700,-70.5900,-87.8700,3.0400,-12.4900,-7.1000,0.0000,0.0000,-0.0000,1046.0000,1770.0000,1500.0000,2000.0000
189913.7000,2.0000,2000.0000,2000.0000,1685.0000,426.0000,114.0000,-63.0000,433.0000,272.0000,-9005.0000,-0.4967,-0.8167,-0.1700,-0.2394,119.1700,-70.5900,-87.8700,3.0400,-12.4900,-7.1000,0.0000,0.0000,-0.0000,1046.0000,1770.0000,1500.0000,2000.0000
189930.4230,2.0000,2000.0000,2000.0000,1685.0000,352.0000,79.0000,-51.0000,746.0000,-177.0000,-8618.0000,-0.4487,-0.8390,-0.1968,-0.2366,119.2100,-70.9900,-87.6600,2.5800,-13.5100,-7.3000,0.0000,0.0000,-0.0000,1046.0000,1770.0000,1500.0000,2000.0000
189947.6970,2.0000,2000.0000,2000.0000,1685.0000,238.0000,40.0000,-33.0000,662.0000,-231.0000,-7612.0000,-0.4104,-0.8547,-0.2168,-0.2324,119.2500,-71.3900,-87.4200,2.1800,-14.3000,-7.6300,0.0000,0.0000,-0.0000,1046.0000,1770.0000,1500.0000,2000.0000
189964.2480,2.0000,2000.0000,2000.0000,1685.0000,101.0000,10.0000,-11.0000,746.0000,-581.0000,-6286.0000,-0.3892,-0.8630,-0.2271,-0.2285,119.2800,-71.7800,-87.1900,1.8700,-14.8700,-7.9500,0.0000,0.0000,-0.0000,1046.0000,1770.0000,1500.0000,2000.0000
189981.0440,2.0000,2000.0000,1837.0000,1747.0000,-43.0000,-11.0000,15.0000,846.0000,-557.0000,-5097.0000,-0.3858,-0.8644,-0.2281,-0.2280,119.3100,-72.1600,-86.9900,1.6800,-15.2600,-8.1300,0.0000,0.0000,-0.0000,1208.0000,1546.0000,1500.0000,2000.0000
189997.8700,2.0000,2000.0000,1836.0000,1748.0000,-141.0000,-18.0000,38.0000,667.0000,-968.0000,-3496.0000,-0.3977,-0.8601,-0.2208,-0.2311,119.3300,-72.5200,-86.8200,1.6000,-15.5100,-8.1500,0.0000,0.0000,-0.0000,1208.0000,1546.0000,1500.0000,2000.0000
190014.5180,2.0000,2000.0000,1836.0000,1748.0000,-211.0000,-8.0000,58.0000,587.0000,-1015.0000,-2627.0000,-0.4184,-0.8513,-0.2084,-0.2383,119.3300,-72.5200,-86.8200,1.6000,-15.5100,-8.1500,0.0000,0.0000,-0.0000,1208.0000,1546.0000,1500.0000,2000.0000
190031.6920,2.0000,2000.0000,1836.0000,1748.0000,-264.0000,-6.0000,74.0000,244.0000,-883.0000,-2462.0000,-0.4462,-0.8380,-0.1915,-0.2491,119.3600,-72.9000,-86.6600,1.5500,-15.3300,-7.9700,0.0000,0.0000,-0.0000,1208.0000,1546.0000,1500.0000,2000.0000
190048.7130,2.0000,2000.0000,1836.0000,1748.0000,-290.0000,-3.0000,84.0000,419.0000,-481.0000,-2735.0000,-0.4777,-0.8210,-0.1711,-0.2615,119.4000,-73.2600,-86.5000,1.5000,-15.0700,-7.6100,0.0000,0.0000,-0.0000,1208.0000,1546.0000,1500.0000,2000.0000
190065.6630,2.0000,2000.0000,1836.0000,1748.0000,-311.0000,-12.0000,91.0000,418.0000,-780.0000,-2202.0000,-0.5105,-0.8014,-0.1484,-0.2743,119.4300,-73.6000,-86.3400,1.4600,-14.8300,-7.3100,0.0000,0.0000,-0.0000,1208.0000,1546.0000,1500.0000,2000.0000
190082.5630,2.0000,2000.0000,1000.0000,1622.0000,-334.0000,-7.0000,88.0000,451.0000,-171.0000,-1654.0000,-0.5443,-0.7782,-0.1245,-0.2875,119.4600,-73.9000,-86.2100,1.4400,-14.6100,-6.9900,0.0000,0.0000,-0.0000,1797.0000,1082.0000,1500.0000,2000.0000
190099.5420,2.0000,2000.0000,1000.0000,1622.0000,-356.0000,3.0000,78.0000,468.0000,266.0000,-1343.0000,-0.5793,-0.7511,-0.1007,-0.3003,119.4800,-74.1800,-86.1000,1.4600,-14.3700,-6.7200,0.0000,0.0000,-0.0000,1797.0000,1082.0000,1500.0000,2000.0000
190116.1960,2.0000,2000.0000,1000.0000,1622.0000,-356.0000,12.0000,69.0000,763.0000,399.0000,-898.0000,-0.6142,-0.7202,-0.0783,-0.3130,119.5300,-74.4900,-86.0100,1.5200,-14.0500,-6.4700,0.0000,0.0000,-0.0000,1797.0000,1082.0000,1500.0000,2000.0000
190133.2450,2.0000,2000.0000,1000.0000,1622.0000,-319.0000,-1.0000,51.0000,874.0000,159.0000,-787.0000,-0.6465,-0.6884,-0.0574,-0.3237,119.5300,-74.4900,-86.0100,1.5200,-14.0500,-6.4700,0.0000,0.0000,-0.0000,1797.0000,1082.0000,1500.0000,2000.0000
190150.1850,2.0000,2000.0000,1000.0000,1622.0000,-255.0000,-23.0000,19.0000,865.0000,274.0000,-693.0000,-0.6733,-0.6611,-0.0395,-0.3287,119.5700,-74.7800,-85.9300,1.5900,-13.7300,-6.1800,0.0000,0.0000,-0.0000,1797.0000,1082.0000,1500.0000,2000.0000
190166.8070,2.0000,2000.0000,1000.0000,1622.0000,-169.0000,-60.0000,-21.0000,636.0000,753.0000,-316.0000,-0.6935,-0.6421,-0.0254,-0.3257,119.6100,-75.0500,-85.8500,1.6700,-13.4600,-5.8200,0.0000,0.0000,-0.0000,1797.0000,1082.0000,1500.0000,2000.0000
190183.6210,2.0000,2000.0000,1000.0000,1497.0000,-89.0000,-108.0000,-68.0000,818.0000,859.0000,825.0000,-0.7075,-0.6329,-0.0153,-0.3140,119.6500,-75.3000,-85.7600,1.7300,-13.1500,-5.4800,0.0000,0.0000,-0.0000,1847.0000,1158.0000,1500.0000,2000.0000
190200.7010,2.0000,2000.0000,1000.0000,1496.0000,-31.0000,-152.0000,-113.0000,506.0000,561.0000,2426.0000,-0.7172,-0.6324,-0.0078,-0.2926,119.6900,-75.5300,-85.6500,1.8400,-12.7400,-5.1400,0.0000,0.0000,-0.0000,1847.0000,1158.0000,1500.0000,2000.0000
190217.4510,2.0000,2000.0000,1000.0000,1496.0000,24.0000,-173.0000,-147.0000,749.0000,292.0000,5083.0000,-0.7227,-0.6387,-0.0032,-0.2641,119.6900,-75.5300,-85.6500,1.8400,-12.7400,-5.1400,0.0000,0.0000,-0.0000,1847.0000,1158.0000,1500.0000,2000.0000
190234.3930,2.0000,2000.0000,1000.0000,1496.0000,72.0000,-181.0000,-175.0000,1072.0000,-52.0000,7437.0000,-0.7238,-0.6505,-0.0019,-0.2301,119.7500,-75.7900,-85.5100,2.0900,-12.1800,-4.7700,0.0000,0.0000,-0.0000,1847.0000,1158.0000,1500.0000,2000.0000
190251.2040,2.0000,2000.0000,1000.0000,1496.0000,109.0000,-178.0000,-189.0000,1221.0000,-514.0000,8969.0000,-0.7207,-0.6656,-0.0039,-0.1939,119.8200,-76.0200,-85.3400,2.4400,-11.4000,-4.4100,0.0000,0.0000,-0.0000,1847.0000,1158.0000,1500.0000,2000.0000
190268.0770,2.0000,2000.0000,1000.0000,1496.0000,133.0000,-169.0000,-192.0000,1391.0000,-1019.0000,9991.0000,-0.7137,-0.6826,-0.0083,-0.1570,119.8800,-76.2200,-85.1700,2.8100,-10.5000,-3.9700,0.0000,0.0000,-0.0000,1847.0000,1158.0000,1500.0000,2000.0000
190284.5610,2.0000,2000.0000,1945.0000,1927.0000,152.0000,-149.0000,-183.0000,1627.0000,-1166.0000,10775.0000,-0.7033,-0.7001,-0.0142,-0.1222,119.9500,-76.4000,-84.9900,3.1600,-9.5600,-3.4800,0.0000,0.0000,-0.0000,1063.0000,1512.0000,1500.0000,2000.0000
190301.4330,2.0000,2000.0000,1947.0000,1927.0000,166.0000,-136.0000,-170.0000,1628.0000,-1641.0000,11031.0000,-0.6899,-0.7181,-0.0210,-0.0893,120.0300,-76.5500,-84.8200,3.4700,-8.6100,-2.9100,0.0000,0.0000,-0.0000,1063.0000,1512.0000,1500.0000,2000.0000
190318.4210,2.0000,2000.0000,1947.0000,1927.0000,147.0000,-125.0000,-147.0000,1549.0000,-1729.0000,10622.0000,-0.6748,-0.7351,-0.0272,-0.0590,120.0300,-76.5500,-84.8200,3.4700,-8.6100,-2.9100,0.0000,0.0000,-0.0000,1063.0000,1512.0000,1500.0000,2000.0000
190335.2500,2.0000,2000.0000,1947.0000,1927.0000,103.0000,-121.0000,-113.0000,1483.0000,-1981.0000,10359.0000,-0.6624,-0.7478,-0.0307,-0.0326,120.1300,-76.7200,-84.6600,3.8000,-7.7600,-2.2700,0.0000,0.0000,-0.0000,1063.0000,1512.0000,1500.0000,2000.0000
190352.6090,2.0000,2000.0000,1947.0000,1927.0000,38.0000,-118.0000,-75.0000,1432.0000,-2242.0000,10116.0000,-0.6552,-0.7547,-0.0303,-0.0098,120.2200,-76.8600,-84.4800,4.0300,-7.0100,-1.5700,0.0000,0.0000,-0.0000,1063.0000,1512.0000,1500.0000,2000.0000
190369.4490,2.0000,2000.0000,1947.0000,1927.0000,-38.0000,-99.0000,-37.0000,1382.0000,-2156.0000,10411.0000,-0.6557,-0.7545,-0.0266,0.0073,120.3200,-76.9900,-84.3000,4.1900,-6.3400,-0.8400,0.0000,0.0000,-0.0000,1063.0000,1512.0000,1500.0000,2000.0000
190386.1930,2.0000,2000.0000,1760.0000,1578.0000,-120.0000,-62.0000,-1.0000,1293.0000,-2050.0000,10824.0000,-0.6649,-0.7464,-0.0218,0.0170,120.4200,-77.1000,-84.1200,4.3000,-5.6400,-0.1300,0.0000,0.0000,-0.0000,1330.0000,1594.0000,1500.0000,2000.0000
190403.2210,2.0000,2000.0000,1761.0000,1577.0000,-210.0000,-11.0000,28.0000,1135.0000,-1783.0000,10311.0000,-0.6830,-0.7299,-0.0181,0.0182,120.5100,-77.1900,-83.9400,4.3700,-4.9300,0.4800,0.0000,0.0000,-0.0000,1330.0000,1594.0000,1500.0000,2000.0000
190420.2930,2.0000,2000.0000,1761.0000,1577.0000,-268.0000,31.0000,52.0000,942.0000,-1666.0000,8409.0000,-0.7093,-0.7046,-0.0164,0.0113,120.5100,-77.1900,-83.9400,4.3700,-4.9300,0.4800,0.0000,0.0000,-0.0000,1330.0000,1594.0000,1500.0000,2000.0000
190437.0450,2.0000,2000.0000,1761.0000,1577.0000,-278.0000,65.0000,64.0000,759.0000,-1296.0000,5763.0000,-0.7370,-0.6756,-0.0166,-0.0012,120.6400,-77.2800,-83.7400,4.6300,-4.2400,1.0000,0.0000,0.0000,-0.0000,1330.0000,1594.0000,1500.0000,2000.0000
190454.0820,2.0000,2000.0000,1761.0000,1577.0000,-266.0000,87.0000,75.0000,665.0000,-866.0000,3306.0000,-0.7636,-0.6452,-0.0184,-0.0178,120.7800,-77.3600,-83.5200,4.8700,-3.8800,1.4000,0.0000,0.0000,-0.0000,1330.0000,1594.0000,1500.0000,2000.0000
190471.0450,2.0000,2000.0000,1617.0000,1475.0000,-263.0000,107.0000,74.0000,670.0000,-387.0000,1134.0000,-0.7878,-0.6144,-0.0220,-0.0368,120.9100,-77.4300,-83.2800,5.1000,-3.8600,1.7200,0.0000,0.0000,-0.0000,1880.0000,1497.0000,1500.0000,2000.0000
190487.8450,2.0000,2000.0000,1119.0000,1123.0000,-252.0000,123.0000,71.0000,741.0000,256.0000,-759.0000,-0.8096,-0.5836,-0.0281,-0.0571,121.0500,-77.4900,-83.0100,5.3200,-4.1200,1.9700,0.0000,0.0000,-0.0000,1880.0000,1497.0000,1500.0000,2000.0000
190504.8890,2.0000,2000.0000,1119.0000,1123.0000,-234.0000,138.0000,62.0000,1054.0000,364.0000,-2288.0000,-0.8289,-0.5528,-0.0361,-0.0777,121.2000,-77.5600,-82.7200,5.5100,-4.6100,2.1900,0.0000,0.0000,-0.0000,1880.0000,1497.0000,1500.0000,2000.0000
190521.9950,2.0000,2000.0000,1119.0000,1123.0000,-171.0000,138.0000,42.0000,1340.0000,531.0000,-3858.0000,-0.8439,-0.5256,-0.0463,-0.0967,121.4000,-77.6500,-82.4300,5.9200,-4.9300,2.3700,0.0000,0.0000,-0.0000,1880.0000,1497.0000,1500.0000,2000.0000
190538.7050,2.0000,2000.0000,1119.0000,1123.0000,-48.0000,127.0000,14.0000,1122.0000,963.0000,-4974.0000,-0.8510,-0.5098,-0.0592,-0.1113,121.4000,-77.6500,-82.4300,5.9200,-4.9300,2.3700,0.0000,0.0000,-0.0000,1880.0000,1497.0000,1500.0000,2000.0000
190555.7580,2.0000,2000.0000,1119.0000,1123.0000,92.0000,118.0000,-22.0000,548.0000,1374.0000,-5739.0000,-0.8480,-0.5106,-0.0756,-0.1199,121.6100,-77.7300,-82.1700,6.2300,-5.3700,2.5500,0.0000,0.0000,-0.0000,1880.0000,1497.0000,1500.0000,2000.0000
190572.5220,2.0000,2000.0000,1911.0000,1915.0000,224.0000,94.0000,-59.0000,100.0000,1430.0000,-6424.0000,-0.8354,-0.5278,-0.0946,-0.1204,121.8200,-77.8200,-81.8900,6.4500,-5.8300,2.6700,0.0000,0.0000,-0.0000,1048.0000,1497.0000,1500.0000,2000.0000
190589.4830,2.0000,2000.0000,1950.0000,1954.0000,330.0000,55.0000,-91.0000,350.0000,1206.0000,-7404.0000,-0.8128,-0.5600,-0.1149,-0.1124,122.0200,-77.9100,-81.6400,6.5500,-6.2800,2.7600,0.0000,0.0000,-0.0000,1048.0000,1497.0000,1500.0000,2000.0000
190606.2710,2.0000,2000.0000,1950.0000,1954.0000,366.0000,18.0000,-115.0000,184.0000,994.0000,-7417.0000,-0.7836,-0.5992,-0.1330,-0.0961,122.2200,-78.0100,-81.4000,6.6100,-6.7400,2.8600,0.0000,0.0000,-0.0000,1048.0000,1497.0000,1500.0000,2000.0000
190623.2280,2.0000,2000.0000,1950.0000,1954.0000,350.0000,-18.0000,-123.0000,292.0000,592.0000,-6302.0000,-0.7515,-0.6387,-0.1478,-0.0737,122.4700,-78.0900,-81.1900,6.8100,-6.7400,2.8900,0.0000,0.0000,-0.0000,1048.0000,1497.0000,1500.0000,2000.0000
190640.2680,2.0000,2000.0000,1950.0000,1954.0000,272.0000,-31.0000,-114.0000,909.0000,507.0000,-4183.0000,-0.7229,-0.6706,-0.1586,-0.0499,122.4700,-78.0900,-81.1900,6.8100,-6.7400,2.8900,0.0000,0.0000,-0.0000,1048.0000,1497.0000,1500.0000,2000.0000
190657.1450,2.0000,2000.0000,1950.0000,1954.0000,134.0000,-38.0000,-97.0000,927.0000,19.0000,-2036.0000,-0.7041,-0.6898,-0.1661,-0.0294,122.7100,-78.1700,-80.9900,7.0800,-6.5900,2.9500,0.0000,0.0000,-0.0000,1048.0000,1497.0000,1500.0000,2000.0000
190674.1470,2.0000,2000.0000,2000.0000,1916.0000,-45.0000,-22.0000,-63.0000,932.0000,-482.0000,-371.0000,-0.7009,-0.6923,-0.1707,-0.0164,122.9400,-78.2400,-80.8100,7.3900,-6.2500,3.0800,0.0000,0.0000,-0.0000,1034.0000,1552.0000,1500.0000,2000.0000
190690.8160,2.0000,2000.0000,2000.0000,1916.0000,-198.0000,5.0000,-27.0000,765.0000,-1071.0000,707.0000,-0.7139,-0.6783,-0.1734,-0.0134,123.1600,-78.3000,-80.6200,7.7000,-5.7500,3.3900,0.0000,0.0000,-0.0000,1034.0000,1552.0000,1500.0000,2000.0000
190707.5830,2.0000,2000.0000,2000.0000,1916.0000,-308.0000,37.0000,6.0000,355.0000,-1063.0000,905.0000,-0.7386,-0.6507,-0.1753,-0.0203,123.3800,-78.3500,-80.4400,7.9400,-5.2000,3.8400,0.0000,0.0000,-0.0000,1034.0000,1552.0000,1500.0000,2000.0000
190724.4690,2.0000,2000.0000,2000.0000,1916.0000,-388.0000,68.0000,35.0000,320.0000,-770.0000,292.0000,-0.7696,-0.6124,-0.1771,-0.0364,123.6400,-78.3800,-80.2200,8.2000,-4.5700,4.3200,0.0000,0.0000,-0.0000,1034.0000,1552.0000,1500.0000,2000.0000
190741.6890,2.0000,2000.0000,2000.0000,1916.0000,-465.0000,95.0000,53.0000,76.0000,-354.0000,-973.0000,-0.8051,-0.5622,-0.1794,-0.0599,123.6400,-78.3800,-80.2200,8.2000,-4.5700,4.3200,0.0000,0.0000,-0.0000,1034.0000,1552.0000,1500.0000,2000.0000
190758.2970,2.0000,2000.0000,2000.0000,1916.0000,-497.0000,115.0000,62.0000,123.0000,279.0000,-2369.0000,-0.8392,-0.5051,-0.1819,-0.0869,123.8800,-78.3900,-80.0000,8.3800,-4.1200,4.7200,0.0000,0.0000,-0.0000,1034.0000,1552.0000,1500.0000,2000.0000
190775.0980,2.0000,2000.0000,2000.0000,1916.0000,-514.0000,111.0000,61.0000,12.0000,504.0000,-2896.0000,-0.8703,-0.4421,-0.1837,-0.1153,124.1100,-78.4100,-79.7800,8.4500,-3.8900,5.0300,0.0000,0.0000,-0.0000,1034.0000,1552.0000,1500.0000,2000.0000
190791.8420,2.0000,2000.0000,1124.0000,1000.0000,-533.0000,108.0000,50.0000,8.0000,636.0000,-2731.0000,-0.8978,-0.3740,-0.1841,-0.1423,124.3300,-78.4200,-79.5800,8.4500,-3.7600,5.2800,0.0000,0.0000,-0.0000,1950.0000,1575.0000,1500.0000,2000.0000
190808.8970,2.0000,2000.0000,1124.0000,1000.0000,-540.0000,108.0000,33.0000,78.0000,1058.0000,-2218.0000,-0.9209,-0.2998,-0.1842,-0.1677,124.5300,-78.4400,-79.3800,8.4100,-3.6500,5.5500,0.0000,0.0000,-0.0000,1950.0000,1575.0000,1500.0000,2000.0000
190825.9630,2.0000,2000.0000,1124.0000,1000.0000,-507.0000,117.0000,9.0000,430.0000,1690.0000,-1485.0000,-0.9380,-0.2245,-0.1846,-0.1891,124.7500,-78.4700,-79.1900,8.2900,-3.6800,5.8100,0.0000,0.0000,-0.0000,1950.0000,1575.0000,1500.0000,2000.0000
190843.1590,2.0000,2000.0000,1124.0000,1000.0000,-427.0000,120.0000,-23.0000,643.0000,1841.0000,-924.0000,-0.9484,-0.1542,-0.1873,-0.2041,124.7500,-78.4700,-79.1900,8.2900,-3.6800,5.8100,0.0000,0.0000,-0.0000,1950.0000,1575.0000,1500.0000,2000.0000
190860.1240,2.0000,2000.0000,1124.0000,1000.0000,-293.0000,129.0000,-62.0000,1065.0000,1359.0000,-846.0000,-0.9533,-0.0979,-0.1942,-0.2097,124.9600,-78.5000,-78.9900,8.2100,-3.7300,6.0300,0.0000,0.0000,-0.0000,1950.0000,1575.0000,1500.0000,2000.0000
190876.6720,2.0000,2000.0000,1124.0000,1000.0000,-102.0000,135.0000,-102.0000,798.0000,781.0000,-1019.0000,-0.9543,-0.0641,-0.2077,-0.2052,125.1500,-78.5300,-78.7900,8.1700,-3.7400,6.3500,0.0000,0.0000,-0.0000,1950.0000,1575.0000,1500.0000,2000.0000
190893.4390,2.0000,2000.0000,1361.0000,2000.0000,106.0000,149.0000,-131.0000,484.0000,549.0000,-1356.0000,-0.9532,-0.0573,-0.2286,-0.1891,125.3400,-78.5600,-78.5800,8.1200,-3.6800,6.7200,0.0000,0.0000,-0.0000,1193.0000,1054.0000,1500.0000,2000.0000
190910.3610,2.0000,2000.0000,1361.0000,2000.0000,276.0000,171.0000,-154.0000,487.0000,360.0000,-2233.0000,-0.9493,-0.0752,-0.2577,-0.1634,125.5100,-78.5800,-78.3600,8.0100,-3.6300,7.1400,0.0000,0.0000,-0.0000,1193.0000,1054.0000,1500.0000,2000.0000
190927.2980,2.0000,2000.0000,1361.0000,2000.0000,395.0000,190.0000,-161.0000,511.0000,80.0000,-4149.0000,-0.9406,-0.1131,-0.2927,-0.1299,125.5100,-78.5800,-78.3600,8.0100,-3.6300,7.1400,0.0000,0.0000,-0.0000,1193.0000,1054.0000,1500.0000,2000.0000
190944.0150,2.0000,2000.0000,1361.0000,2000.0000,415.0000,170.0000,-154.0000,355.0000,165.0000,-6270.0000,-0.9265,-0.1591,-0.3279,-0.0933,125.7000,-78.6300,-78.1000,7.6900,-3.8300,7.6900,0.0000,0.0000,-0.0000,1193.0000,1054.0000,1500.0000,2000.0000
190960.6580,2.0000,2000.0000,1361.0000,2000.0000,343.0000,121.0000,-143.0000,525.0000,29.0000,-8358.0000,-0.9109,-0.2008,-0.3558,-0.0580,125.8600,-78.6800,-77.8300,7.2000,-4.0800,8.3500,0.0000,0.0000,-0.0000,1193.0000,1054.0000,1500.0000,2000.0000
190977.2370,2.0000,2000.0000,1564.0000,2000.0000,263.0000,48.0000,-124.0000,644.0000,-604.0000,-9323.0000,-0.8977,-0.2333,-0.3729,-0.0267,126.0100,-78.7300,-77.5600,6.5800,-4.4200,8.8300,0.0000,0.0000,-0.0000,1019.0000,1092.0000,1500.0000,2000.0000
190994.3050,2.0000,2000.0000,1573.0000,2000.0000,161.0000,-38.0000,-92.0000,474.0000,-1176.0000,-8206.0000,-0.8900,-0.2553,-0.3779,-0.0002,126.1300,-78.7900,-77.3100,5.9500,-4.7800,9.4200,0.0000,0.0000,-0.0000,1019.0000,1092.0000,1500.0000,2000.0000
191011.1380,2.0000,2000.0000,1573.0000,2000.0000,55.0000,-101.0000,-51.0000,491.0000,-1475.0000,-5130.0000,-0.8897,-0.2654,-0.3710,0.0179,126.2400,-78.8600,-77.0500,5.4300,-5.0600,10.0300,0.0000,0.0000,-0.0000,1019.0000,1092.0000,1500.0000,2000.0000
191027.8840,2.0000,2000.0000,1573.0000,2000.0000,-41.0000,-149.0000,-5.0000,487.0000,-1544.0000,-771.0000,-0.8962,-0.2638,-0.3559,0.0265,126.2400,-78.8600,-77.0500,5.4300,-5.0600,10.0300,0.0000,0.0000,-0.0000,1019.0000,1092.0000,1500.0000,2000.0000
191044.9980,2.0000,2000.0000,1573.0000,2000.0000,-110.0000,-168.0000,38.0000,424.0000,-1981.0000,3026.0000,-0.9074,-0.2537,-0.3340,0.0262,126.3200,-78.9500,-76.7400,5.0000,-5.2900,10.6200,0.0000,0.0000,-0.0000,1019.0000,1092.0000,1500.0000,2000.0000
191061.8180,2.0000,2000.0000,1573.0000,2000.0000,-168.0000,-169.0000,71.0000,519.0000,-1697.0000,5872.0000,-0.9207,-0.2370,-0.3097,0.0180,126.3900,-79.0400,-76.4100,4.8900,-5.2600,11.0200,0.0000,0.0000,-0.0000,1019.0000,1092.0000,1500.0000,2000.0000
191078.9250,2.0000,2000.0000,1281.0000,2000.0000,-221.0000,-174.0000,95.0000,705.0000,-1502.0000,7990.0000,-0.9349,-0.2133,-0.2837,0.0032,126.4600,-79.1300,-76.0600,4.9800,-5.0900,11.2700,0.0000,0.0000,-0.0000,1352.0000,1134.0000,1500.0000,2000.0000
191095.7000,2.0000,2000.0000,1281.0000,2000.0000,-250.0000,-169.0000,120.0000,709.0000,-1966.0000,9742.0000,-0.9485,-0.1849,-0.2566,-0.0163,126.5300,-79.2000,-75.6800,5.1800,-4.8800,11.3000,0.0000,0.0000,-0.0000,1352.0000,1134.0000,1500.0000,2000.0000
191112.3870,2.0000,2000.0000,1281.0000,2000.0000,-254.0000,-166.0000,139.0000,814.0000,-2004.0000,11082.0000,-0.9602,-0.1545,-0.2292,-0.0397,126.6000,-79.2800,-75.3000,5.3800,-4.6800,11.1200,0.0000,0.0000,-0.0000,1352.0000,1134.0000,1500.0000,2000.0000
191128.9510,2.0000,2000.0000,1281.0000,2000.0000,-209.0000,-174.0000,138.0000,967.0000,-1589.0000,10966.0000,-0.9692,-0.1274,-0.2009,-0.0636,126.6000,-79.2800,-75.3000,5.3800,-4.6800,11.1200,0.0000,0.0000,-0.0000,1352.0000,1134.0000,1500.0000,2000.0000
191145.9770,2.0000,2000.0000,1281.0000,2000.0000,-157.0000,-190.0000,127.0000,1002.0000,-1052.0000,11304.0000,-0.9758,-0.1071,-0.1703,-0.0851,126.6600,-79.3800,-74.9000,5.4900,-4.6500,10.7700,0.0000,0.0000,-0.0000,1352.0000,1134.0000,1500.0000,2000.0000
191162.4720,2.0000,2000.0000,1281.0000,2000.0000,-130.0000,-195.0000,112.0000,1070.0000,-771.0000,11726.0000,-0.9805,-0.0926,-0.1395,-0.1027,126.7400,-79.4700,-74.5300,5.6000,-4.6800,10.2800,0.0000,0.0000,-0.0000,1352.0000,1134.0000,1500.0000,2000.0000
191179.0710,2.0000,2000.0000,1461.0000,2000.0000,-122.0000,-195.0000,98.0000,1163.0000,-584.0000,12209.0000,-0.9839,-0.0797,-0.1083,-0.1178,126.8100,-79.5600,-74.1800,5.6800,-4.7500,9.6700,0.0000,0.0000,-0.0000,1114.0000,1075.0000,1500.0000,2000.0000
191195.7600,2.0000,2000.0000,1461.0000,2000.0000,-126.0000,-194.0000,81.0000,1302.0000,-398.0000,12988.0000,-0.9862,-0.0667,-0.0772,-0.1306,126.8800,-79.6500,-73.8500,5.7200,-4.8300,8.9200,0.0000,0.0000,-0.0000,1114.0000,1075.0000,1500.0000,2000.0000
191212.5710,2.0000,2000.0000,1461.0000,2000.0000,-146.0000,-184.0000,60.0000,1563.0000,-350.0000,14246.0000,-0.9877,-0.0514,-0.0463,-0.1405,126.9700,-79.7400,-73.5400,5.8200,-4.8900,8.0000,0.0000,0.0000,-0.0000,1114.0000,1075.0000,1500.0000,2000.0000
191229.2810,2.0000,2000.0000,1461.0000,2000.0000,-176.0000,-159.0000,45.0000,1817.0000,-428.0000,15330.0000,-0.9884,-0.0319,-0.0178,-0.1475,126.9700,-79.7400,-73.5400,5.8200,-4.8900,8.0000,0.0000,0.0000,-0.0000,1114.0000,1075.0000,1500.0000,2000.0000
191246.2770,2.0000,2000.0000,1461.0000,2000.0000,-197.0000,-122.0000,29.0000,1866.0000,-386.0000,15648.0000,-0.9883,-0.0075,0.0070,-0.1524,127.1000,-79.8400,-73.2500,6.1800,-4.8300,6.8800,0.0000,0.0000,-0.0000,1114.0000,1075.0000,1500.0000,2000.0000
191262.9880,2.0000,2000.0000,1461.0000,2000.0000,-196.0000,-85.0000,14.0000,1721.0000,-306.0000,14664.0000,-0.9874,0.0186,0.0264,-0.1551,127.2200,-79.9300,-73.0000,6.4200,-4.8400,5.6600,0.0000,0.0000,-0.0000,1114.0000,1075.0000,1500.0000,2000.0000
191279.6600,2.0000,2000.0000,1000.0000,1580.0000,-189.0000,-59.0000,5.0000,1410.0000,-330.0000,13078.0000,-0.9860,0.0451,0.0407,-0.1555,127.3500,-80.0200,-72.7900,6.5500,-4.9200,4.5200,0.0000,0.0000,-0.0000,1829.0000,1093.0000,1500.0000,2000.0000
191296.2730,2.0000,2000.0000,1000.0000,1579.0000,-187.0000,-37.0000,2.0000,1063.0000,-662.0000,11867.0000,-0.9840,0.0708,0.0517,-0.1551,127.4700,-80.1100,-72.6000,6.5800,-5.0400,3.5700,0.0000,0.0000,-0.0000,1829.0000,1093.0000,1500.0000,2000.0000
191313.0420,2.0000,2000.0000,1000.0000,1579.0000,-162.0000,-20.0000,0.0000,800.0000,-527.0000,10554.0000,-0.9816,0.0958,0.0597,-0.1542,127.4700,-80.1100,-72.6000,6.5800,-5.0400,3.5700,0.0000,0.0000,-0.0000,1829.0000,1093.0000,1500.0000,2000.0000
191329.9170,2.0000,2000.0000,1000.0000,1579.0000,-100.0000,-14.0000,-6.0000,726.0000,-672.0000,8989.0000,-0.9793,0.1147,0.0653,-0.1534,127.5900,-80.2100,-72.4100,6.4700,-5.2000,2.7500,0.0000,0.0000,-0.0000,1829.0000,1093.0000,1500.0000,2000.0000
191346.8590,2.0000,2000.0000,1000.0000,1579.0000,-32.0000,-24.0000,-23.0000,608.0000,-379.0000,7449.0000,-0.9782,0.1237,0.0701,-0.1514,127.7000,-80.3200,-72.2300,6.1300,-5.4300,2.1400,0.0000,0.0000,-0.0000,1829.0000,1093.0000,1500.0000,2000.0000
191363.6760,2.0000,2000.0000,1000.0000,1579.0000,17.0000,-48.0000,-46.0000,482.0000,-339.0000,6405.0000,-0.9785,0.1231,0.0760,-0.1473,127.7900,-80.4400,-72.0500,5.7700,-5.6400,1.7100,0.0000,0.0000,-0.0000,1829.0000,1093.0000,1500.0000,2000.0000
191380.2570,2.0000,2000.0000,1339.0000,1000.0000,52.0000,-78.0000,-68.0000,479.0000,-355.0000,5959.0000,-0.9795,0.1159,0.0853,-0.1408,127.8700,-80.5500,-71.8600,5.4100,-5.8300,1.4200,0.0000,0.0000,-0.0000,1839.0000,1680.0000,1500.0000,2000.0000
191397.2030,2.0000,2000.0000,1340.0000,1000.0000,75.0000,-104.0000,-82.0000,537.0000,-734.0000,6469.0000,-0.9808,0.1036,0.0986,-0.1325,127.9400,-80.6700,-71.6700,5.0500,-5.9600,1.1600,0.0000,0.0000,-0.0000,1839.0000,1680.0000,1500.0000,2000.0000
191413.9010,2.0000,2000.0000,1340.0000,1000.0000,99.0000,-107.0000,-88.0000,854.0000,-1059.0000,8106.0000,-0.9820,0.0876,0.1135,-0.1232,127.9400,-80.6700,-71.6700,5.0500,-5.9600,1.1600,0.0000,0.0000,-0.0000,1839.0000,1680.0000,1500.0000,2000.0000
191430.7280,2.0000,2000.0000,1340.0000,1000.0000,129.0000,-73.0000,-84.0000,1115.0000,-1171.0000,9793.0000,-0.9831,0.0684,0.1259,-0.1141,128.0100,-80.7900,-71.4800,4.6900,-6.0900,0.7900,0.0000,0.0000,-0.0000,1839.0000,1680.0000,1500.0000,2000.0000
191447.6540,2.0000,2000.0000,1340.0000,1000.0000,191.0000,-14.0000,-70.0000,1137.0000,-1371.0000,10611.0000,-0.9847,0.0430,0.1308,-0.1066,128.0700,-80.9400,-71.3000,4.3100,-6.2600,0.2100,0.0000,0.0000,-0.0000,1839.0000,1680.0000,1500.0000,2000.0000
191464.3390,2.0000,2000.0000,1340.0000,1000.0000,272.0000,52.0000,-48.0000,920.0000,-1812.0000,10019.0000,-0.9868,0.0088,0.1248,-0.1027,128.1200,-81.0900,-71.1300,3.9300,-6.3500,-0.4400,0.0000,0.0000,-0.0000,1839.0000,1680.0000,1500.0000,2000.0000
191481.0320,2.0000,2000.0000,2000.0000,1667.0000,386.0000,120.0000,-27.0000,472.0000,-1859.0000,7543.0000,-0.9881,-0.0383,0.1074,-0.1036,128.1600,-81.2200,-70.9700,3.6000,-6.3000,-1.0400,0.0000,0.0000,-0.0000,1042.0000,1776.0000,1500.0000,2000.0000
191497.5470,2.0000,2000.0000,2000.0000,1683.0000,451.0000,184.0000,-9.0000,278.0000,-1085.0000,3986.0000,-0.9863,-0.0963,0.0785,-0.1084,128.1900,-81.3600,-70.8200,3.3500,-6.2100,-1.3000,0.0000,0.0000,-0.0000,1042.0000,1776.0000,1500.0000,2000.0000
191514.3290,2.0000,2000.0000,2000.0000,1683.0000,462.0000,234.0000,10.0000,618.0000,-641.0000,161.0000,-0.9795,-0.1591,0.0404,-0.1163,128.1900,-81.3600,-70.8200,3.3500,-6.2100,-1.3000,0.0000,0.0000,-0.0000,1042.0000,1776.0000,1500.0000,2000.0000
191531.3320,2.0000,2000.0000,2000.0000,1683.0000,368.0000,273.0000,30.0000,788.0000,-108.0000,-4015.0000,-0.9683,-0.2151,-0.0037,-0.1272,128.2100,-81.4900,-70.6300,3.1800,-6.1900,-1.1700,0.0000,0.0000,-0.0000,1042.0000,1776.0000,1500.0000,2000.0000
191548.3670,2.0000,2000.0000,2000.0000,1683.0000,206.0000,269.0000,48.0000,764.0000,41.0000,-8027.0000,-0.9565,-0.2512,-0.0468,-0.1408,128.2400,-81.6400,-70.4000,3.0400,-6.3100,-0.7300,0.0000,0.0000,-0.0000,1042.0000,1776.0000,1500.0000,2000.0000
191565.1200,2.0000,2000.0000,2000.0000,1683.0000,17.0000,218.0000,67.0000,493.0000,446.0000,-10476.0000,-0.9489,-0.2616,-0.0810,-0.1570,128.2600,-81.7700,-70.2000,2.8000,-6.6500,-0.1400,0.0000,0.0000,-0.0000,1042.0000,1776.0000,1500.0000,2000.0000
191581.9660,2.0000,2000.0000,1430.0000,1396.0000,-135.0000,150.0000,80.0000,166.0000,479.0000,-11159.0000,-0.9471,-0.2490,-0.1018,-0.1748,128.2700,-81.9100,-70.0300,2.4300,-7.0800,0.4700,0.0000,0.0000,-0.0000,1590.0000,1519.0000,1500.0000,2000.0000
191598.9400,2.0000,2000.0000,1429.0000,1395.0000,-248.0000,71.0000,83.0000,381.0000,326.0000,-10195.0000,-0.9500,-0.2195,-0.1092,-0.1933,128.2800,-82.0500,-69.9000,2.0500,-7.4000,1.1200,0.0000,0.0000,-0.0000,1590.0000,1519.0000,1500.0000,2000.0000
191615.8310,2.0000,2000.0000,1429.0000,1395.0000,-289.0000,19.0000,75.0000,570.0000,467.0000,-7657.0000,-0.9551,-0.1810,-0.1045,-0.2099,128.2800,-82.0500,-69.9000,2.0500,-7.4000,1.1200,0.0000,0.0000,-0.0000,1590.0000,1519.0000,1500.0000,2000.0000
191632.7670,2.0000,2000.0000,1429.0000,1395.0000,-260.0000,0.0000,63.0000,705.0000,437.0000,-5291.0000,-0.9595,-0.1426,-0.0949,-0.2237,128.2900,-82.1800,-69.7700,1.8300,-7.4500,1.8500,0.0000,0.0000,-0.0000,1590.0000,1519.0000,1500.0000,2000.0000
191649.9550,2.0000,2000.0000,1429.0000,1395.0000,-193.0000,-16.0000,44.0000,724.0000,478.0000,-3952.0000,-0.9622,-0.1109,-0.0846,-0.2340,128.3100,-82.3100,-69.6300,1.8200,-7.2100,2.4700,0.0000,0.0000,-0.0000,1590.0000,1519.0000,1500.0000,2000.0000
191666.9370,2.0000,2000.0000,1429.0000,1395.0000,-112.0000,-23.0000,15.0000,702.0000,732.0000,-2811.0000,-0.9637,-0.0905,-0.0759,-0.2394,128.3400,-82.4300,-69.5000,1.8600,-6.9600,2.9700,0.0000,0.0000,-0.0000,1590.0000,1519.0000,1500.0000,2000.0000
191683.7240,2.0000,2000.0000,1000.0000,1619.0000,-53.0000,-31.0000,-14.0000,1057.0000,511.0000,-1916.0000,-0.9651,-0.0801,-0.0691,-0.2396,128.3700,-82.5400,-69.3600,1.9200,-6.7300,3.3900,0.0000,0.0000,-0.0000,1803.0000,1079.0000,1500.0000,2000.0000
191700.7520,2.0000,2000.0000,1000.0000,1619.0000,-7.0000,-22.0000,-33.0000,891.0000,289.0000,-620.0000,-0.9666,-0.0765,-0.0648,-0.2359,128.3900,-82.6300,-69.2300,2.0200,-6.5000,3.7600,0.0000,0.0000,-0.0000,1803.0000,1079.0000,1500.0000,2000.0000
191717.4340,2.0000,2000.0000,1000.0000,1619.0000,26.0000,-31.0000,-59.0000,592.0000,476.0000,-46.0000,-0.9683,-0.0785,-0.0622,-0.2287,128.3900,-82.6300,-69.2300,2.0200,-6.5000,3.7600,0.0000,0.0000,-0.0000,1803.0000,1079.0000,1500.0000,2000.0000
191733.9700,2.0000,2000.0000,1000.0000,1619.0000,43.0000,-57.0000,-79.0000,439.0000,563.0000,245.0000,-0.9707,-0.0842,-0.0580,-0.2176,128.4500,-82.7300,-69.0800,2.2900,-6.2300,4.0900,0.0000,0.0000,-0.0000,1803.0000,1079.0000,1500.0000,2000.0000
191750.8210,2.0000,2000.0000,1000.0000,1619.0000,69.0000,-98.0000,-100.0000,388.0000,328.0000,961.0000,-0.9733,-0.0947,-0.0498,-0.2029,128.5400,-82.8100,-68.9300,2.7200,-5.9500,4.4100,0.0000,0.0000,-0.0000,1803.0000,1079.0000,1500.0000,2000.0000
191767.2740,2.0000,2000.0000,1000.0000,1619.0000,92.0000,-133.0000,-116.0000,289.0000,-6.0000,2506.0000,-0.9760,-0.1090,-0.0374,-0.1849,128.6300,-82.8900,-68.7600,3.1300,-5.6300,4.6700,0.0000,0.0000,-0.0000,1803.0000,1079.0000,1500.0000,2000.0000
191783.9750,2.0000,2000.0000,1935.0000,1885.0000,109.0000,-156.0000,-123.0000,556.0000,-613.0000,5283.0000,-0.9780,-0.1265,-0.0214,-0.1643,128.7300,-82.9400,-68.5800,3.5600,-5.2300,4.7900,0.0000,0.0000,-0.0000,1089.0000,1528.0000,1500.0000,2000.0000
191800.5740,2.0000,2000.0000,1937.0000,1885.0000,131.0000,-170.0000,-124.0000,712.0000,-1253.0000,7713.0000,-0.9787,-0.1470,-0.0032,-0.1429,128.8300,-82.9800,-68.3900,4.0100,-4.7000,4.6900,0.0000,0.0000,-0.0000,1089.0000,1528.0000,1500.0000,2000.0000
191817.2680,2.0000,2000.0000,1937.0000,1885.0000,135.0000,-173.0000,-111.0000,1001.0000,-1333.0000,9393.0000,-0.9778,-0.1698,0.0161,-0.1217,128.8300,-82.9800,-68.3900,4.0100,-4.7000,4.6900,0.0000,0.0000,-0.0000,1089.0000,1528.0000,1500.0000,2000.0000
