t_ms,msp,motor,servo0,servo1,gyro_p,gyro_q,gyro_r,acc_x,acc_y,acc_z,qw,qx,qy,qz,pos_n,pos_e,pos_d,vel_n,vel_e,vel_d,tgtpos_n,tgtpos_e,tgtpos_d,rcData0,rcData1,rcData2,rcData3
217036.6090,3.0000,1507.0000,1471.0000,1531.0000,22.0000,3.0000,9.0000,511.0000,-366.0000,951.0000,-0.0265,0.1609,-0.1270,0.9784,139.4900,-22.3100,-79.9900,-15.7900,4.7800,-4.9900,0.0000,0.0000,-0.0000,1500.0000,1498.0000,1500.0000,1534.0000
217053.3210,3.0000,1507.0000,1470.0000,1530.0000,20.0000,3.0000,13.0000,465.0000,-402.0000,845.0000,-0.0284,0.1603,-0.1244,0.9788,139.4900,-22.3100,-79.9900,-15.7900,4.7800,-4.9900,0.0000,0.0000,-0.0000,1500.0000,1500.0000,1500.0000,1534.0000
217070.0730,3.0000,1508.0000,1470.0000,1530.0000,17.0000,4.0000,17.0000,522.0000,-442.0000,856.0000,-0.0309,0.1594,-0.1223,0.9791,139.1900,-22.2000,-80.0800,-15.8000,4.7700,-4.8900,0.0000,0.0000,-0.0000,1500.0000,1500.0000,1500.0000,1535.0000
217087.0060,3.0000,1506.0000,1469.0000,1529.0000,15.0000,3.0000,19.0000,471.0000,-347.0000,1014.0000,-0.0338,0.1587,-0.1206,0.9793,138.8900,-22.1000,-80.1600,-15.8200,4.7600,-4.8000,0.0000,0.0000,-0.0000,1500.0000,1498.0000,1500.0000,1532.0000
217103.6820,3.0000,1506.0000,1468.0000,1528.0000,13.0000,3.0000,20.0000,445.0000,-377.0000,1309.0000,-0.0369,0.1581,-0.1195,0.9795,138.5800,-21.9900,-80.2400,-15.8300,4.7600,-4.7100,0.0000,0.0000,-0.0000,1500.0000,1498.0000,1500.0000,1534.0000
217120.4130,3.0000,1507.0000,1469.0000,1529.0000,13.0000,2.0000,21.0000,532.0000,-360.0000,1603.0000,-0.0401,0.1574,-0.1187,0.9796,138.2700,-21.8800,-80.3200,-15.8400,4.7800,-4.6500,0.0000,0.0000,-0.0000,1500.0000,1500.0000,1500.0000,1534.0000
217136.9050,3.0000,1507.0000,1471.0000,1529.0000,18.0000,2.0000,22.0000,536.0000,-383.0000,1935.0000,-0.0434,0.1568,-0.1176,0.9797,137.9600,-21.7700,-80.4000,-15.8400,4.8000,-4.6300,0.0000,0.0000,-0.0000,1500.0000,1500.0000,1500.0000,1534.0000
217153.5970,3.0000,1506.0000,1475.0000,1533.0000,23.0000,0.0000,26.0000,550.0000,-490.0000,2376.0000,-0.0472,0.1559,-0.1153,0.9799,137.9600,-21.7700,-80.4000,-15.8400,4.8000,-4.6300,0.0000,0.0000,-0.0000,1500.0000,1500.0000,1500.0000,1533.0000
217170.4660,3.0000,1506.0000,1476.0000,1534.0000,25.0000,1.0000,31.0000,579.0000,-603.0000,2577.0000,-0.0519,0.1552,-0.1125,0.9801,137.6600,-21.6600,-80.4800,-15.8200,4.8200,-4.6500,0.0000,0.0000,-0.0000,1500.0000,1500.0000,1500.0000,1534.0000
217187.4390,3.0000,1507.0000,1476.0000,1534.0000,24.0000,0.0000,36.0000,523.0000,-521.0000,2407.0000,-0.0573,0.1544,-0.1096,0.9802,137.3700,-21.5600,-80.5600,-15.7900,4.8300,-4.7000,0.0000,0.0000,-0.0000,1500.0000,1500.0000,1500.0000,1534.0000
217204.2300,3.0000,1507.0000,1477.0000,1531.0000,22.0000,-3.0000,38.0000,548.0000,-454.0000,2259.0000,-0.0630,0.1540,-0.1071,0.9802,137.0600,-21.4400,-80.6400,-15.7700,4.8400,-4.7500,0.0000,0.0000,-0.0000,1500.0000,1500.0000,1500.0000,1534.0000
217221.1130,3.0000,1506.0000,1476.0000,1528.0000,19.0000,-5.0000,38.0000,572.0000,-403.0000,2107.0000,-0.0687,0.1537,-0.1048,0.9801,136.7500,-21.3300,-80.7200,-15.7600,4.8500,-4.7800,0.0000,0.0000,-0.0000,1498.0000,1500.0000,1500.0000,1533.0000
217237.8710,3.0000,1507.0000,1474.0000,1526.0000,16.0000,-5.0000,35.0000,549.0000,-232.0000,1987.0000,-0.0744,0.1537,-0.1033,0.9799,136.4400,-21.2200,-80.8100,-15.7500,4.8700,-4.7800,0.0000,0.0000,-0.0000,1500.0000,1498.0000,1500.0000,1534.0000
217254.4850,3.0000,1507.0000,1476.0000,1526.0000,15.0000,-7.0000,36.0000,516.0000,-154.0000,1904.0000,-0.0798,0.1538,-0.1018,0.9796,136.4400,-21.2200,-80.8100,-15.7500,4.8700,-4.7800,0.0000,0.0000,-0.0000,1500.0000,1498.0000,1500.0000,1534.0000
217271.1680,3.0000,1506.0000,1476.0000,1524.0000,13.0000,-8.0000,31.0000,551.0000,-174.0000,1951.0000,-0.0848,0.1543,-0.1006,0.9792,136.1400,-21.1100,-80.8900,-15.7300,4.9000,-4.7800,0.0000,0.0000,-0.0000,1500.0000,1500.0000,1500.0000,1533.0000
217287.9350,3.0000,1507.0000,1476.0000,1524.0000,12.0000,-7.0000,26.0000,539.0000,-165.0000,1841.0000,-0.0891,0.1550,-0.0996,0.9788,135.8500,-21.0100,-80.9700,-15.7100,4.9200,-4.7700,0.0000,0.0000,-0.0000,1500.0000,1498.0000,1500.0000,1534.0000
217304.6970,3.0000,1507.0000,1477.0000,1523.0000,12.0000,-10.0000,20.0000,521.0000,-107.0000,1768.0000,-0.0929,0.1558,-0.0988,0.9784,135.5400,-20.8900,-81.0500,-15.7100,4.9500,-4.7600,0.0000,0.0000,-0.0000,1500.0000,1498.0000,1500.0000,1534.0000
217321.1550,3.0000,1506.0000,1474.0000,1520.0000,5.0000,-10.0000,18.0000,572.0000,-74.0000,1857.0000,-0.0958,0.1569,-0.0985,0.9780,135.2300,-20.7800,-81.1400,-15.7100,4.9900,-4.7400,0.0000,0.0000,-0.0000,1500.0000,1498.0000,1500.0000,1533.0000
217337.7630,3.0000,1506.0000,1472.0000,1518.0000,2.0000,-10.0000,10.0000,529.0000,-107.0000,2012.0000,-0.0978,0.1583,-0.0990,0.9775,134.9200,-20.6700,-81.2200,-15.6900,5.0300,-4.7400,0.0000,0.0000,-0.0000,1500.0000,1500.0000,1500.0000,1534.0000
217354.2080,3.0000,1507.0000,1466.0000,1514.0000,-8.0000,-8.0000,8.0000,534.0000,-171.0000,2063.0000,-0.0992,0.1596,-0.1002,0.9771,134.9200,-20.6700,-81.2200,-15.6900,5.0300,-4.7400,0.0000,0.0000,-0.0000,1500.0000,1498.0000,1500.0000,1534.0000
217370.7940,3.0000,1506.0000,1465.0000,1513.0000,-10.0000,-7.0000,6.0000,555.0000,-212.0000,2081.0000,-0.0997,0.1608,-0.1024,0.9766,134.6300,-20.5600,-81.3000,-15.6700,5.0500,-4.7400,0.0000,0.0000,-0.0000,1500.0000,1500.0000,1500.0000,1533.0000
217387.4520,3.0000,1506.0000,1465.0000,1513.0000,-11.0000,-6.0000,2.0000,551.0000,-144.0000,2180.0000,-0.1000,0.1619,-0.1044,0.9762,134.3400,-20.4500,-81.3800,-15.6500,5.0800,-4.7600,0.0000,0.0000,-0.0000,1500.0000,1498.0000,1500.0000,1533.0000
217403.9280,3.0000,1506.0000,1463.0000,1511.0000,-15.0000,-6.0000,-2.0000,540.0000,-61.0000,2233.0000,-0.0996,0.1633,-0.1062,0.9758,134.0400,-20.3300,-81.4600,-15.6200,5.1200,-4.7700,0.0000,0.0000,-0.0000,1500.0000,1498.0000,1500.0000,1533.0000
217420.5470,3.0000,1506.0000,1457.0000,1505.0000,-26.0000,-6.0000,-6.0000,550.0000,-83.0000,2152.0000,-0.0984,0.1650,-0.1089,0.9753,133.7300,-20.2100,-81.5500,-15.5900,5.1600,-4.7900,0.0000,0.0000,-0.0000,1500.0000,1498.0000,1500.0000,1533.0000
217437.1290,3.0000,1506.0000,1455.0000,1503.0000,-28.0000,-5.0000,-9.0000,547.0000,-192.0000,2115.0000,-0.0965,0.1665,-0.1125,0.9748,133.7300,-20.2100,-81.5500,-15.5900,5.1600,-4.7900,0.0000,0.0000,-0.0000,1498.0000,1500.0000,1500.0000,1533.0000
217453.6920,3.0000,1506.0000,1457.0000,1507.0000,-23.0000,-3.0000,-13.0000,587.0000,-166.0000,2149.0000,-0.0943,0.1678,-0.1155,0.9745,133.4300,-20.1000,-81.6300,-15.5600,5.2000,-4.8000,0.0000,0.0000,-0.0000,1500.0000,1500.0000,1500.0000,1533.0000
217470.1810,3.0000,1507.0000,1463.0000,1513.0000,-14.0000,-4.0000,-18.0000,540.0000,-75.0000,1941.0000,-0.0916,0.1689,-0.1172,0.9743,133.1400,-19.9800,-81.7200,-15.5300,5.2300,-4.8200,0.0000,0.0000,-0.0000,1500.0000,1498.0000,1500.0000,1534.0000
217487.0840,3.0000,1507.0000,1466.0000,1516.0000,-9.0000,-4.0000,-24.0000,460.0000,-147.0000,1657.0000,-0.0882,0.1701,-0.1178,0.9744,132.8500,-19.8700,-81.8000,-15.4900,5.2600,-4.8100,0.0000,0.0000,-0.0000,1500.0000,1498.0000,1500.0000,1534.0000
217503.5650,3.0000,1507.0000,1468.0000,1518.0000,-5.0000,-2.0000,-26.0000,500.0000,-189.0000,1564.0000,-0.0844,0.1714,-0.1174,0.9745,132.5500,-19.7500,-81.8800,-15.4700,5.3000,-4.7700,0.0000,0.0000,-0.0000,1500.0000,1498.0000,1500.0000,1534.0000
217520.1750,3.0000,1507.0000,1466.0000,1518.0000,-4.0000,-1.0000,-29.0000,483.0000,-213.0000,1634.0000,-0.0803,0.1724,-0.1165,0.9748,132.2500,-19.6200,-81.9700,-15.4500,5.3300,-4.7300,0.0000,0.0000,-0.0000,1500.0000,1498.0000,1500.0000,1534.0000
217536.6700,3.0000,1506.0000,1465.0000,1519.0000,-3.0000,1.0000,-29.0000,470.0000,-161.0000,1881.0000,-0.0761,0.1729,-0.1153,0.9752,132.2500,-19.6200,-81.9700,-15.4500,5.3300,-4.7300,0.0000,0.0000,-0.0000,1500.0000,1500.0000,1500.0000,1533.0000
217553.2230,3.0000,1506.0000,1464.0000,1520.0000,-3.0000,3.0000,-27.0000,507.0000,-342.0000,2183.0000,-0.0719,0.1732,-0.1140,0.9756,131.9600,-19.5000,-82.0500,-15.4200,5.3700,-4.7100,0.0000,0.0000,-0.0000,1500.0000,1498.0000,1500.0000,1533.0000
217569.9660,3.0000,1506.0000,1464.0000,1522.0000,0.0000,5.0000,-26.0000,518.0000,-366.0000,2308.0000,-0.0681,0.1731,-0.1131,0.9760,131.6700,-19.3800,-82.1300,-15.3700,5.3900,-4.7200,0.0000,0.0000,-0.0000,1500.0000,1500.0000,1500.0000,1533.0000
217586.8360,3.0000,1506.0000,1465.0000,1523.0000,0.0000,5.0000,-24.0000,565.0000,-419.0000,2289.0000,-0.0643,0.1727,-0.1123,0.9764,131.3900,-19.2700,-82.2100,-15.3200,5.4100,-4.7400,0.0000,0.0000,-0.0000,1500.0000,1500.0000,1500.0000,1534.0000
217603.4910,3.0000,1507.0000,1463.0000,1523.0000,0.0000,6.0000,-20.0000,555.0000,-553.0000,2241.0000,-0.0610,0.1723,-0.1117,0.9768,131.0900,-19.1400,-82.3000,-15.2800,5.4300,-4.7700,0.0000,0.0000,-0.0000,1500.0000,1500.0000,1500.0000,1534.0000
217620.0780,3.0000,1506.0000,1466.0000,1524.0000,4.0000,5.0000,-15.0000,514.0000,-635.0000,2114.0000,-0.0584,0.1719,-0.1108,0.9771,131.0900,-19.1400,-82.3000,-15.2800,5.4300,-4.7700,0.0000,0.0000,-0.0000,1500.0000,1498.0000,1500.0000,1533.0000
217636.8140,3.0000,1506.0000,1468.0000,1526.0000,7.0000,5.0000,-9.0000,505.0000,-732.0000,2078.0000,-0.0567,0.1714,-0.1095,0.9774,130.8000,-19.0200,-82.3800,-15.2400,5.4400,-4.7900,0.0000,0.0000,-0.0000,1500.0000,1498.0000,1500.0000,1533.0000
217653.8160,3.0000,1506.0000,1471.0000,1529.0000,6.0000,4.0000,0.0000,581.0000,-738.0000,2205.0000,-0.0562,0.1709,-0.1083,0.9777,130.5100,-18.8900,-82.4600,-15.2000,5.4300,-4.8000,0.0000,0.0000,-0.0000,1497.0000,1500.0000,1500.0000,1533.0000
217670.5750,3.0000,1506.0000,1469.0000,1525.0000,7.0000,2.0000,9.0000,623.0000,-698.0000,2344.0000,-0.0570,0.1704,-0.1074,0.9778,130.2200,-18.7700,-82.5500,-15.1600,5.4200,-4.8300,0.0000,0.0000,-0.0000,1500.0000,1500.0000,1500.0000,1533.0000
217687.3740,3.0000,1507.0000,1471.0000,1525.0000,9.0000,0.0000,16.0000,602.0000,-716.0000,2298.0000,-0.0590,0.1699,-0.1067,0.9779,129.9500,-18.6500,-82.6300,-15.1100,5.4100,-4.8700,0.0000,0.0000,-0.0000,1500.0000,1498.0000,1500.0000,1534.0000
217704.0960,3.0000,1506.0000,1473.0000,1525.0000,9.0000,-2.0000,21.0000,563.0000,-629.0000,2140.0000,-0.0620,0.1696,-0.1056,0.9779,129.6600,-18.5300,-82.7100,-15.0800,5.4200,-4.9000,0.0000,0.0000,-0.0000,1500.0000,1498.0000,1500.0000,1533.0000
217720.7960,3.0000,1507.0000,1474.0000,1526.0000,12.0000,-2.0000,25.0000,489.0000,-497.0000,2014.0000,-0.0657,0.1694,-0.1047,0.9778,129.6600,-18.5300,-82.7100,-15.0800,5.4200,-4.9000,0.0000,0.0000,-0.0000,1500.0000,1498.0000,1500.0000,1534.0000
217737.6700,3.0000,1506.0000,1475.0000,1525.0000,14.0000,-4.0000,29.0000,484.0000,-433.0000,1894.0000,-0.0701,0.1694,-0.1039,0.9775,129.3700,-18.4000,-82.8000,-15.0400,5.4300,-4.9100,0.0000,0.0000,-0.0000,1500.0000,1500.0000,1500.0000,1533.0000
217754.1950,3.0000,1506.0000,1477.0000,1527.0000,16.0000,-4.0000,30.0000,464.0000,-461.0000,1792.0000,-0.0748,0.1694,-0.1030,0.9773,129.0800,-18.2800,-82.8800,-15.0100,5.4400,-4.9000,0.0000,0.0000,-0.0000,1500.0000,1498.0000,1500.0000,1533.0000
217771.0060,3.0000,1506.0000,1477.0000,1527.0000,17.0000,-4.0000,29.0000,438.0000,-285.0000,1789.0000,-0.0797,0.1693,-0.1020,0.9770,128.8100,-18.1600,-82.9600,-14.9700,5.4500,-4.8900,0.0000,0.0000,-0.0000,1498.0000,1500.0000,1500.0000,1533.0000
217787.9650,3.0000,1506.0000,1476.0000,1526.0000,15.0000,-3.0000,29.0000,451.0000,-157.0000,1819.0000,-0.0846,0.1691,-0.1011,0.9767,128.5400,-18.0400,-83.0500,-14.9300,5.4800,-4.8700,0.0000,0.0000,-0.0000,1500.0000,1500.0000,1500.0000,1533.0000
217804.7060,3.0000,1506.0000,1474.0000,1524.0000,9.0000,-4.0000,29.0000,465.0000,-147.0000,1866.0000,-0.0892,0.1693,-0.1004,0.9764,128.2500,-17.9100,-83.1300,-14.8900,5.5200,-4.8500,0.0000,0.0000,-0.0000,1500.0000,1500.0000,1500.0000,1533.0000
217821.7410,3.0000,1506.0000,1469.0000,1519.0000,0.0000,-4.0000,29.0000,475.0000,-220.0000,2009.0000,-0.0937,0.1694,-0.1007,0.9759,128.2500,-17.9100,-83.1300,-14.8900,5.5200,-4.8500,0.0000,0.0000,-0.0000,1500.0000,1498.0000,1500.0000,1533.0000
217838.2890,3.0000,1506.0000,1464.0000,1514.0000,-9.0000,-3.0000,27.0000,498.0000,-203.0000,1999.0000,-0.0975,0.1696,-0.1024,0.9753,127.9700,-17.7800,-83.2100,-14.8600,5.5600,-4.8400,0.0000,0.0000,-0.0000,1500.0000,1500.0000,1500.0000,1533.0000
217855.1410,2.0000,1915.0000,1000.0000,1624.0000,-12.0000,-3.0000,24.0000,586.0000,-212.0000,2009.0000,-0.1009,0.1698,-0.1049,0.9747,127.6900,-17.6600,-83.3000,-14.8100,5.5900,-4.8400,0.0000,0.0000,-0.0000,1778.0000,1074.0000,1500.0000,2000.0000
217871.8760,2.0000,2000.0000,1000.0000,1649.0000,-13.0000,-4.0000,22.0000,556.0000,-257.0000,2063.0000,-0.1039,0.1702,-0.1074,0.9740,127.4100,-17.5300,-83.3800,-14.7800,5.6200,-4.8400,0.0000,0.0000,-0.0000,1778.0000,1074.0000,1500.0000,2000.0000
217888.9600,2.0000,2000.0000,1000.0000,1649.0000,-22.0000,-11.0000,21.0000,703.0000,-180.0000,1888.0000,-0.1063,0.1714,-0.1105,0.9732,127.1200,-17.4000,-83.4600,-14.7500,5.6600,-4.8500,0.0000,0.0000,-0.0000,1778.0000,1074.0000,1500.0000,2000.0000
217905.9280,2.0000,2000.0000,1000.0000,1649.0000,-23.0000,-27.0000,11.0000,1102.0000,-303.0000,1604.0000,-0.1081,0.1744,-0.1144,0.9720,126.8400,-17.2700,-83.5500,-14.7600,5.7000,-4.8400,0.0000,0.0000,-0.0000,1778.0000,1074.0000,1500.0000,2000.0000
217922.9580,2.0000,2000.0000,1000.0000,1649.0000,-10.0000,-51.0000,2.0000,1371.0000,-325.0000,1569.0000,-0.1091,0.1814,-0.1167,0.9704,126.8400,-17.2700,-83.5500,-14.7600,5.7000,-4.8400,0.0000,0.0000,-0.0000,1778.0000,1074.0000,1500.0000,2000.0000
217939.8020,2.0000,2000.0000,1000.0000,1649.0000,7.0000,-71.0000,-13.0000,1433.0000,39.0000,1655.0000,-0.1088,0.1911,-0.1161,0.9686,126.5600,-17.1300,-83.6200,-14.7900,5.7400,-4.8200,0.0000,0.0000,-0.0000,1778.0000,1074.0000,1500.0000,2000.0000
217956.6630,2.0000,2000.0000,1000.0000,1644.0000,25.0000,-95.0000,-23.0000,1383.0000,-469.0000,2144.0000,-0.1078,0.2044,-0.1120,0.9665,126.2900,-16.9900,-83.7000,-14.8200,5.8000,-4.7900,0.0000,0.0000,-0.0000,1782.0000,1075.0000,1500.0000,2000.0000
217973.1800,2.0000,2000.0000,1000.0000,1644.0000,38.0000,-106.0000,-29.0000,1515.0000,-500.0000,3227.0000,-0.1064,0.2191,-0.1053,0.9642,126.0400,-16.8600,-83.7700,-14.8000,5.8200,-4.8200,0.0000,0.0000,-0.0000,1782.0000,1075.0000,1500.0000,2000.0000
217990.2610,2.0000,2000.0000,1000.0000,1644.0000,52.0000,-121.0000,-33.0000,1696.0000,-568.0000,4210.0000,-0.1051,0.2354,-0.0961,0.9614,125.8100,-16.7300,-83.8300,-14.7200,5.8400,-4.9300,0.0000,0.0000,-0.0000,1782.0000,1075.0000,1500.0000,2000.0000
218006.9410,2.0000,2000.0000,1000.0000,1644.0000,54.0000,-124.0000,-31.0000,1793.0000,-729.0000,4980.0000,-0.1043,0.2523,-0.0854,0.9582,125.5400,-16.5800,-83.9000,-14.6500,5.8900,-5.1500,0.0000,0.0000,-0.0000,1782.0000,1075.0000,1500.0000,2000.0000
218023.6990,2.0000,2000.0000,1000.0000,1644.0000,50.0000,-130.0000,-32.0000,1777.0000,-1057.0000,5643.0000,-0.1036,0.2694,-0.0749,0.9545,125.5400,-16.5800,-83.9000,-14.6500,5.8900,-5.1500,0.0000,0.0000,-0.0000,1782.0000,1075.0000,1500.0000,2000.0000
218040.4790,2.0000,2000.0000,1000.0000,1644.0000,48.0000,-128.0000,-31.0000,2058.0000,-875.0000,6387.0000,-0.1030,0.2873,-0.0645,0.9501,125.2800,-16.4300,-83.9600,-14.5400,5.9000,-5.4200,0.0000,0.0000,-0.0000,1782.0000,1075.0000,1500.0000,2000.0000
218057.4010,2.0000,2000.0000,1000.0000,1648.0000,47.0000,-133.0000,-30.0000,2047.0000,-1058.0000,6690.0000,-0.1026,0.3054,-0.0543,0.9451,125.0300,-16.2900,-84.0200,-14.3700,5.8900,-5.7700,0.0000,0.0000,-0.0000,1778.0000,1075.0000,1500.0000,2000.0000
218074.5520,2.0000,2000.0000,1000.0000,1648.0000,49.0000,-131.0000,-30.0000,1927.0000,-1164.0000,6844.0000,-0.1026,0.3234,-0.0440,0.9396,124.8000,-16.1600,-84.0900,-14.1600,5.8600,-6.1400,0.0000,0.0000,-0.0000,1778.0000,1075.0000,1500.0000,2000.0000
218091.3940,2.0000,2000.0000,1000.0000,1648.0000,49.0000,-118.0000,-26.0000,2119.0000,-1222.0000,7478.0000,-0.1020,0.3401,-0.0341,0.9342,124.5200,-16.0000,-84.1700,-13.9900,5.8400,-6.5300,0.0000,0.0000,-0.0000,1778.0000,1075.0000,1500.0000,2000.0000
218108.3760,2.0000,2000.0000,1000.0000,1648.0000,50.0000,-103.0000,-23.0000,2319.0000,-1163.0000,7938.0000,-0.1018,0.3548,-0.0240,0.9291,124.2500,-15.8600,-84.2600,-13.7700,5.8100,-6.9800,0.0000,0.0000,-0.0000,1778.0000,1075.0000,1500.0000,2000.0000
218125.3420,2.0000,2000.0000,1000.0000,1648.0000,48.0000,-88.0000,-21.0000,2020.0000,-1306.0000,7509.0000,-0.1020,0.3672,-0.0149,0.9244,124.2500,-15.8600,-84.2600,-13.7700,5.8100,-6.9800,0.0000,0.0000,-0.0000,1778.0000,1075.0000,1500.0000,2000.0000
218142.2360,2.0000,2000.0000,1000.0000,1665.0000,44.0000,-70.0000,-18.0000,1830.0000,-1100.0000,6818.0000,-0.1024,0.3774,-0.0061,0.9203,124.0000,-15.7200,-84.3500,-13.5300,5.7400,-7.4300,0.0000,0.0000,-0.0000,1757.0000,1072.0000,1500.0000,2000.0000
218159.1890,2.0000,2000.0000,1000.0000,1672.0000,43.0000,-58.0000,-15.0000,1826.0000,-1100.0000,6400.0000,-0.1033,0.3852,0.0022,0.9170,123.7700,-15.5800,-84.4400,-13.3200,5.6700,-7.8000,0.0000,0.0000,-0.0000,1757.0000,1072.0000,1500.0000,2000.0000
218176.1710,2.0000,2000.0000,1000.0000,1672.0000,49.0000,-49.0000,-16.0000,1812.0000,-758.0000,5821.0000,-0.1046,0.3915,0.0105,0.9141,123.5500,-15.4600,-84.5500,-13.1400,5.5900,-8.1300,0.0000,0.0000,-0.0000,1757.0000,1072.0000,1500.0000,2000.0000
218193.0610,2.0000,2000.0000,1000.0000,1672.0000,45.0000,-46.0000,-15.0000,2033.0000,-944.0000,6073.0000,-0.1053,0.3972,0.0186,0.9115,123.2800,-15.3100,-84.6600,-12.9300,5.5600,-8.4100,0.0000,0.0000,-0.0000,1757.0000,1072.0000,1500.0000,2000.0000
218210.1260,2.0000,2000.0000,1000.0000,1672.0000,47.0000,-41.0000,-13.0000,1873.0000,-1063.0000,5650.0000,-0.1063,0.4026,0.0267,0.9088,123.0400,-15.1700,-84.7800,-12.7400,5.5000,-8.7000,0.0000,0.0000,-0.0000,1757.0000,1072.0000,1500.0000,2000.0000
218226.8140,2.0000,2000.0000,1000.0000,1672.0000,43.0000,-42.0000,-14.0000,1664.0000,-1245.0000,5024.0000,-0.1073,0.4072,0.0340,0.9064,123.0400,-15.1700,-84.7800,-12.7400,5.5000,-8.7000,0.0000,0.0000,-0.0000,1757.0000,1072.0000,1500.0000,2000.0000
218243.3990,2.0000,2000.0000,1000.0000,1672.0000,38.0000,-40.0000,-14.0000,1550.0000,-1037.0000,4432.0000,-0.1081,0.4120,0.0411,0.9038,122.8000,-15.0400,-84.9000,-12.5700,5.4100,-8.9500,0.0000,0.0000,-0.0000,1757.0000,1072.0000,1500.0000,2000.0000
218259.9790,2.0000,2000.0000,1000.0000,1655.0000,34.0000,-35.0000,-13.0000,1746.0000,-954.0000,4471.0000,-0.1089,0.4160,0.0476,0.9016,122.5800,-14.9100,-85.0200,-12.4600,5.3400,-9.1400,0.0000,0.0000,-0.0000,1772.0000,1074.0000,1500.0000,2000.0000
218276.7020,2.0000,2000.0000,1000.0000,1655.0000,31.0000,-34.0000,-15.0000,1796.0000,-722.0000,4344.0000,-0.1094,0.4200,0.0535,0.8993,122.3800,-14.7900,-85.1400,-12.3600,5.2800,-9.3300,0.0000,0.0000,-0.0000,1772.0000,1074.0000,1500.0000,2000.0000
218293.6050,2.0000,2000.0000,1000.0000,1655.0000,22.0000,-40.0000,-16.0000,1639.0000,-463.0000,3806.0000,-0.1090,0.4244,0.0585,0.8970,122.1900,-14.6800,-85.2600,-12.2700,5.2600,-9.4900,0.0000,0.0000,-0.0000,1772.0000,1074.0000,1500.0000,2000.0000
218310.4770,2.0000,2000.0000,1000.0000,1655.0000,22.0000,-50.0000,-21.0000,1782.0000,-242.0000,3955.0000,-0.1078,0.4299,0.0631,0.8942,122.0200,-14.5700,-85.3900,-12.2000,5.2600,-9.6300,0.0000,0.0000,-0.0000,1772.0000,1074.0000,1500.0000,2000.0000
218326.9390,2.0000,2000.0000,1000.0000,1655.0000,27.0000,-62.0000,-24.0000,1671.0000,-436.0000,3515.0000,-0.1064,0.4364,0.0686,0.8908,122.0200,-14.5700,-85.3900,-12.2000,5.2600,-9.6300,0.0000,0.0000,-0.0000,1772.0000,1074.0000,1500.0000,2000.0000
218343.6360,2.0000,2000.0000,1000.0000,1647.0000,37.0000,-74.0000,-30.0000,1644.0000,-582.0000,3464.0000,-0.1049,0.4443,0.0758,0.8865,121.8700,-14.4700,-85.5000,-12.1400,5.2600,-9.7500,0.0000,0.0000,-0.0000,1781.0000,1074.0000,1500.0000,2000.0000
218360.3240,2.0000,2000.0000,1000.0000,1646.0000,49.0000,-86.0000,-34.0000,1737.0000,-643.0000,3802.0000,-0.1032,0.4535,0.0848,0.8812,121.7300,-14.3700,-85.6200,-12.0900,5.2300,-9.8500,0.0000,0.0000,-0.0000,1781.0000,1074.0000,1500.0000,2000.0000
218377.2240,2.0000,2000.0000,1000.0000,1646.0000,55.0000,-97.0000,-40.0000,1771.0000,-591.0000,3871.0000,-0.1014,0.4642,0.0959,0.8747,121.6000,-14.2900,-85.7400,-12.0200,5.1900,-9.9300,0.0000,0.0000,-0.0000,1781.0000,1074.0000,1500.0000,2000.0000
218394.0880,2.0000,2000.0000,1000.0000,1646.0000,58.0000,-107.0000,-41.0000,1806.0000,-578.0000,4082.0000,-0.0990,0.4757,0.1077,0.8674,121.4800,-14.2100,-85.8600,-11.9400,5.1300,-10.0100,0.0000,0.0000,-0.0000,1781.0000,1074.0000,1500.0000,2000.0000
218410.8960,2.0000,2000.0000,1000.0000,1646.0000,59.0000,-121.0000,-41.0000,1781.0000,-732.0000,4377.0000,-0.0967,0.4887,0.1201,0.8587,121.4800,-14.2100,-85.8600,-11.9400,5.1300,-10.0100,0.0000,0.0000,-0.0000,1781.0000,1074.0000,1500.0000,2000.0000
218427.9040,2.0000,2000.0000,1000.0000,1646.0000,54.0000,-126.0000,-38.0000,1814.0000,-758.0000,4731.0000,-0.0946,0.5029,0.1328,0.8488,121.3700,-14.1300,-85.9800,-11.8300,5.0600,-10.1000,0.0000,0.0000,-0.0000,1781.0000,1074.0000,1500.0000,2000.0000
218444.6380,2.0000,2000.0000,1000.0000,1615.0000,49.0000,-131.0000,-35.0000,1798.0000,-662.0000,4797.0000,-0.0926,0.5170,0.1445,0.8386,121.2800,-14.0700,-86.1000,-11.6900,4.9500,-10.1800,0.0000,0.0000,-0.0000,1809.0000,1078.0000,1500.0000,2000.0000
218461.6620,2.0000,2000.0000,1000.0000,1614.0000,43.0000,-132.0000,-31.0000,1800.0000,-459.0000,4845.0000,-0.0908,0.5313,0.1554,0.8279,121.1900,-14.0100,-86.2200,-11.5400,4.8400,-10.2500,0.0000,0.0000,-0.0000,1809.0000,1078.0000,1500.0000,2000.0000
218478.6090,2.0000,2000.0000,1000.0000,1614.0000,46.0000,-134.0000,-30.0000,1964.0000,-454.0000,5427.0000,-0.0887,0.5460,0.1659,0.8164,121.1100,-13.9500,-86.3400,-11.3800,4.7500,-10.3100,0.0000,0.0000,-0.0000,1809.0000,1078.0000,1500.0000,2000.0000
218495.3870,2.0000,2000.0000,1000.0000,1614.0000,47.0000,-132.0000,-30.0000,1954.0000,-974.0000,5861.0000,-0.0864,0.5605,0.1763,0.8046,121.0400,-13.9000,-86.4600,-11.1800,4.6100,-10.3900,0.0000,0.0000,-0.0000,1809.0000,1078.0000,1500.0000,2000.0000
218512.3910,2.0000,2000.0000,1000.0000,1614.0000,46.0000,-128.0000,-28.0000,1910.0000,-1270.0000,6176.0000,-0.0844,0.5741,0.1865,0.7928,121.0400,-13.9000,-86.4600,-11.1800,4.6100,-10.3900,0.0000,0.0000,-0.0000,1809.0000,1078.0000,1500.0000,2000.0000
218529.0440,2.0000,2000.0000,1000.0000,1614.0000,44.0000,-122.0000,-29.0000,2084.0000,-1096.0000,6605.0000,-0.0827,0.5868,0.1965,0.7812,120.9700,-13.8600,-86.5800,-10.9700,4.4200,-10.4600,0.0000,0.0000,-0.0000,1809.0000,1078.0000,1500.0000,2000.0000
218545.9850,2.0000,2000.0000,1000.0000,1613.0000,47.0000,-116.0000,-30.0000,2094.0000,-966.0000,6414.0000,-0.0813,0.5985,0.2068,0.7697,120.9200,-13.8300,-86.7000,-10.7400,4.2200,-10.5100,0.0000,0.0000,-0.0000,1805.0000,1083.0000,1500.0000,2000.0000
218562.6570,2.0000,2000.0000,1000.0000,1613.0000,47.0000,-108.0000,-28.0000,2066.0000,-896.0000,6352.0000,-0.0805,0.6090,0.2174,0.7585,120.8700,-13.7900,-86.8300,-10.5100,4.0400,-10.5500,0.0000,0.0000,-0.0000,1805.0000,1083.0000,1500.0000,2000.0000
218579.7580,2.0000,2000.0000,1000.0000,1613.0000,42.0000,-100.0000,-30.0000,2091.0000,-712.0000,6431.0000,-0.0795,0.6186,0.2276,0.7478,120.8200,-13.7700,-86.9500,-10.3200,3.8900,-10.5900,0.0000,0.0000,-0.0000,1805.0000,1083.0000,1500.0000,2000.0000
218596.4060,2.0000,2000.0000,1000.0000,1613.0000,39.0000,-92.0000,-31.0000,2094.0000,-913.0000,6491.0000,-0.0775,0.6273,0.2369,0.7378,120.7900,-13.7500,-87.0800,-10.1200,3.7400,-10.6100,0.0000,0.0000,-0.0000,1805.0000,1083.0000,1500.0000,2000.0000
218613.4500,2.0000,2000.0000,1000.0000,1613.0000,41.0000,-84.0000,-32.0000,1793.0000,-871.0000,5331.0000,-0.0759,0.6347,0.2462,0.7285,120.7900,-13.7500,-87.0800,-10.1200,3.7400,-10.6100,0.0000,0.0000,-0.0000,1805.0000,1083.0000,1500.0000,2000.0000
218630.4420,2.0000,2000.0000,1000.0000,1613.0000,39.0000,-71.0000,-32.0000,1613.0000,-616.0000,4394.0000,-0.0747,0.6408,0.2556,0.7200,120.7600,-13.7300,-87.2000,-10.0000,3.6200,-10.5900,0.0000,0.0000,-0.0000,1805.0000,1083.0000,1500.0000,2000.0000
218647.0190,2.0000,2000.0000,1000.0000,1613.0000,40.0000,-68.0000,-35.0000,1748.0000,-426.0000,4449.0000,-0.0738,0.6457,0.2649,0.7123,120.7400,-13.7200,-87.3400,-9.9900,3.5800,-10.5300,0.0000,0.0000,-0.0000,1805.0000,1083.0000,1500.0000,2000.0000
218664.1460,2.0000,2000.0000,1000.0000,1638.0000,34.0000,-63.0000,-36.0000,1849.0000,-468.0000,4651.0000,-0.0726,0.6503,0.2746,0.7046,120.7200,-13.7100,-87.4700,-9.9800,3.5700,-10.4700,0.0000,0.0000,-0.0000,1788.0000,1075.0000,1500.0000,2000.0000
218681.1120,2.0000,2000.0000,1000.0000,1638.0000,34.0000,-62.0000,-35.0000,1816.0000,-425.0000,4357.0000,-0.0709,0.6542,0.2832,0.6977,120.6100,-13.6600,-87.6100,-9.9400,3.4300,-10.4300,0.0000,0.0000,-0.0000,1788.0000,1075.0000,1500.0000,2000.0000
218697.9480,2.0000,2000.0000,1000.0000,1638.0000,42.0000,-69.0000,-37.0000,1720.0000,-777.0000,3766.0000,-0.0690,0.6588,0.2923,0.6898,120.2400,-13.5300,-87.8200,-9.8500,3.0000,-10.4200,0.0000,0.0000,-0.0000,1788.0000,1075.0000,1500.0000,2000.0000
218714.9970,2.0000,2000.0000,1000.0000,1638.0000,37.0000,-59.0000,-36.0000,1676.0000,-625.0000,3398.0000,-0.0673,0.6629,0.3016,0.6820,120.2400,-13.5300,-87.8200,-9.8500,3.0000,-10.4200,0.0000,0.0000,-0.0000,1788.0000,1075.0000,1500.0000,2000.0000
218731.7900,2.0000,2000.0000,1000.0000,1638.0000,42.0000,-68.0000,-39.0000,1785.0000,-752.0000,3654.0000,-0.0657,0.6665,0.3107,0.6745,119.9000,-13.4100,-88.0200,-9.8100,2.6300,-10.3800,0.0000,0.0000,-0.0000,1788.0000,1075.0000,1500.0000,2000.0000
218748.8250,2.0000,2000.0000,1000.0000,1625.0000,43.0000,-75.0000,-39.0000,1696.0000,-757.0000,3202.0000,-0.0636,0.6712,0.3209,0.6652,119.5800,-13.3100,-88.2300,-9.7600,2.2900,-10.3100,0.0000,0.0000,-0.0000,1800.0000,1077.0000,1500.0000,2000.0000
218765.8110,2.0000,2000.0000,1000.0000,1624.0000,42.0000,-84.0000,-37.0000,1756.0000,-735.0000,3326.0000,-0.0617,0.6758,0.3310,0.6557,119.2800,-13.2200,-88.4200,-9.7100,1.9900,-10.2200,0.0000,0.0000,-0.0000,1800.0000,1077.0000,1500.0000,2000.0000
218782.7270,2.0000,2000.0000,1000.0000,1624.0000,46.0000,-91.0000,-38.0000,1810.0000,-817.0000,3477.0000,-0.0591,0.6815,0.3409,0.6449,118.9800,-13.1400,-88.6200,-9.6200,1.6500,-10.1200,0.0000,0.0000,-0.0000,1800.0000,1077.0000,1500.0000,2000.0000
218799.3950,2.0000,2000.0000,1000.0000,1624.0000,48.0000,-97.0000,-37.0000,1894.0000,-796.0000,3615.0000,-0.0564,0.6876,0.3507,0.6333,118.6700,-13.0700,-88.8300,-9.4300,1.1500,-10.0100,0.0000,0.0000,-0.0000,1800.0000,1077.0000,1500.0000,2000.0000
218816.4660,2.0000,2000.0000,1000.0000,1624.0000,51.0000,-105.0000,-36.0000,1935.0000,-701.0000,3664.0000,-0.0538,0.6940,0.3611,0.6205,118.6700,-13.0700,-88.8300,-9.4300,1.1500,-10.0100,0.0000,0.0000,-0.0000,1800.0000,1077.0000,1500.0000,2000.0000
218833.3650,2.0000,2000.0000,1000.0000,1624.0000,52.0000,-114.0000,-35.0000,1919.0000,-556.0000,3667.0000,-0.0510,0.7010,0.3716,0.6066,118.3800,-13.0200,-89.0300,-9.2400,0.7000,-9.9000,0.0000,0.0000,-0.0000,1800.0000,1077.0000,1500.0000,2000.0000
218850.1370,2.0000,2000.0000,1000.0000,1626.0000,52.0000,-122.0000,-34.0000,2056.0000,-410.0000,4161.0000,-0.0478,0.7085,0.3818,0.5916,118.1100,-12.9700,-89.2300,-9.0500,0.3100,-9.7800,0.0000,0.0000,-0.0000,1798.0000,1077.0000,1500.0000,2000.0000
218867.1340,2.0000,2000.0000,1000.0000,1626.0000,54.0000,-128.0000,-34.0000,2103.0000,-619.0000,4522.0000,-0.0443,0.7163,0.3924,0.5753,117.8600,-12.9400,-89.4200,-8.8300,-0.0400,-9.6600,0.0000,0.0000,-0.0000,1798.0000,1077.0000,1500.0000,2000.0000
218883.9340,2.0000,2000.0000,1000.0000,1626.0000,51.0000,-128.0000,-32.0000,2066.0000,-528.0000,4388.0000,-0.0406,0.7238,0.4021,0.5592,117.6200,-12.9300,-89.6200,-8.5600,-0.4800,-9.4900,0.0000,0.0000,-0.0000,1798.0000,1077.0000,1500.0000,2000.0000
218900.8630,2.0000,2000.0000,1000.0000,1626.0000,48.0000,-131.0000,-31.0000,2064.0000,-827.0000,4732.0000,-0.0360,0.7319,0.4111,0.5423,117.3800,-12.9300,-89.8100,-8.2400,-1.0500,-9.2800,0.0000,0.0000,-0.0000,1798.0000,1077.0000,1500.0000,2000.0000
218917.6140,2.0000,2000.0000,1000.0000,1626.0000,46.0000,-139.0000,-31.0000,2138.0000,-871.0000,5136.0000,-0.0309,0.7398,0.4197,0.5250,117.3800,-12.9300,-89.8100,-8.2400,-1.0500,-9.2800,0.0000,0.0000,-0.0000,1798.0000,1077.0000,1500.0000,2000.0000
218934.1800,2.0000,2000.0000,1000.0000,1626.0000,42.0000,-139.0000,-31.0000,2040.0000,-982.0000,4913.0000,-0.0256,0.7474,0.4280,0.5075,117.1500,-12.9400,-90.0100,-7.9200,-1.6000,-9.0400,0.0000,0.0000,-0.0000,1798.0000,1077.0000,1500.0000,2000.0000
218951.0690,2.0000,2000.0000,1000.0000,1627.0000,39.0000,-136.0000,-31.0000,1932.0000,-687.0000,4384.0000,-0.0198,0.7548,0.4361,0.4896,116.9400,-12.9700,-90.1900,-7.6300,-2.0800,-8.7700,0.0000,0.0000,-0.0000,1797.0000,1077.0000,1500.0000,2000.0000
218967.8080,2.0000,2000.0000,1000.0000,1627.0000,39.0000,-137.0000,-31.0000,1913.0000,-677.0000,4260.0000,-0.0138,0.7615,0.4439,0.4721,116.7500,-13.0000,-90.3700,-7.4000,-2.4600,-8.5100,0.0000,0.0000,-0.0000,1797.0000,1077.0000,1500.0000,2000.0000
218984.7490,2.0000,2000.0000,1000.0000,1627.0000,36.0000,-133.0000,-32.0000,2061.0000,-747.0000,4915.0000,-0.0073,0.7683,0.4510,0.4542,116.5600,-13.0400,-90.5500,-7.1700,-2.8500,-8.2400,0.0000,0.0000,-0.0000,1797.0000,1077.0000,1500.0000,2000.0000
219001.5400,2.0000,2000.0000,1000.0000,1627.0000,37.0000,-128.0000,-35.0000,1987.0000,-516.0000,4600.0000,-0.0010,0.7742,0.4581,0.4367,116.3700,-13.1100,-90.7300,-6.8800,-3.3400,-7.9200,0.0000,0.0000,-0.0000,1797.0000,1077.0000,1500.0000,2000.0000
219018.4400,2.0000,2000.0000,1000.0000,1627.0000,34.0000,-127.0000,-35.0000,1986.0000,-434.0000,4738.0000,0.0056,0.7796,0.4649,0.4196,116.3700,-13.1100,-90.7300,-6.8800,-3.3400,-7.9200,0.0000,0.0000,-0.0000,1797.0000,1077.0000,1500.0000,2000.0000
219035.1500,2.0000,2000.0000,1000.0000,1627.0000,29.0000,-120.0000,-38.0000,2040.0000,-546.0000,4916.0000,0.0123,0.7840,0.4716,0.4034,116.1900,-13.1800,-90.9000,-6.6100,-3.7300,-7.6100,0.0000,0.0000,-0.0000,1797.0000,1077.0000,1500.0000,2000.0000
219051.8490,2.0000,2000.0000,1000.0000,1627.0000,24.0000,-113.0000,-37.0000,1977.0000,-683.0000,4473.0000,0.0192,0.7876,0.4782,0.3881,116.0300,-13.2500,-91.0700,-6.3700,-4.0800,-7.2600,0.0000,0.0000,-0.0000,1798.0000,1077.0000,1500.0000,2000.0000
219068.5520,2.0000,2000.0000,1000.0000,1626.0000,25.0000,-117.0000,-39.0000,1995.0000,-872.0000,4615.0000,0.0261,0.7907,0.4847,0.3731,115.8900,-13.3300,-91.2200,-6.1800,-4.3700,-6.9000,0.0000,0.0000,-0.0000,1798.0000,1077.0000,1500.0000,2000.0000
219085.2980,2.0000,2000.0000,1000.0000,1626.0000,26.0000,-115.0000,-42.0000,1988.0000,-604.0000,4341.0000,0.0331,0.7934,0.4910,0.3582,115.7400,-13.4200,-91.3800,-6.0200,-4.6800,-6.5400,0.0000,0.0000,-0.0000,1798.0000,1077.0000,1500.0000,2000.0000
219102.3670,2.0000,2000.0000,1000.0000,1626.0000,27.0000,-118.0000,-45.0000,1982.0000,-363.0000,4114.0000,0.0405,0.7959,0.4977,0.3423,115.5800,-13.5200,-91.5300,-5.8800,-5.0000,-6.2000,0.0000,0.0000,-0.0000,1798.0000,1077.0000,1500.0000,2000.0000
219119.4430,2.0000,2000.0000,1000.0000,1626.0000,30.0000,-117.0000,-46.0000,1990.0000,-824.0000,4066.0000,0.0477,0.7980,0.5046,0.3260,115.5800,-13.5200,-91.5300,-5.8800,-5.0000,-6.2000,0.0000,0.0000,-0.0000,1798.0000,1077.0000,1500.0000,2000.0000
219136.1360,2.0000,2000.0000,1000.0000,1626.0000,28.0000,-118.0000,-45.0000,1911.0000,-724.0000,3782.0000,0.0548,0.7997,0.5113,0.3099,115.4300,-13.6300,-91.6800,-5.7700,-5.2700,-5.8400,0.0000,0.0000,-0.0000,1798.0000,1077.0000,1500.0000,2000.0000
219153.1320,2.0000,2000.0000,1000.0000,1623.0000,32.0000,-122.0000,-47.0000,1894.0000,-956.0000,3756.0000,0.0621,0.8012,0.5182,0.2928,115.3000,-13.7300,-91.8200,-5.6900,-5.4900,-5.4700,0.0000,0.0000,-0.0000,1801.0000,1078.0000,1500.0000,2000.0000
219169.7530,2.0000,2000.0000,1000.0000,1622.0000,36.0000,-122.0000,-46.0000,2039.0000,-692.0000,4080.0000,0.0689,0.8022,0.5249,0.2761,115.1700,-13.8300,-91.9500,-5.6400,-5.6600,-5.1000,0.0000,0.0000,-0.0000,1801.0000,1078.0000,1500.0000,2000.0000
219186.5420,2.0000,2000.0000,1000.0000,1622.0000,42.0000,-135.0000,-48.0000,1964.0000,-656.0000,3853.0000,0.0758,0.8033,0.5316,0.2575,115.0400,-13.9400,-92.0800,-5.5800,-5.8700,-4.7000,0.0000,0.0000,-0.0000,1801.0000,1078.0000,1500.0000,2000.0000
219203.6910,2.0000,2000.0000,1000.0000,1622.0000,43.0000,-136.0000,-48.0000,2005.0000,-951.0000,4182.0000,0.0835,0.8046,0.5381,0.2370,114.8900,-14.0700,-92.2100,-5.5800,-6.1100,-4.2800,0.0000,0.0000,-0.0000,1801.0000,1078.0000,1500.0000,2000.0000
219220.4360,2.0000,2000.0000,1000.0000,1622.0000,43.0000,-140.0000,-47.0000,1888.0000,-547.0000,3634.0000,0.0905,0.8052,0.5443,0.2171,114.8900,-14.0700,-92.2100,-5.5800,-6.1100,-4.2800,0.0000,0.0000,-0.0000,1801.0000,1078.0000,1500.0000,2000.0000
219237.4380,2.0000,2000.0000,1000.0000,1622.0000,41.0000,-138.0000,-44.0000,1910.0000,-478.0000,3726.0000,0.0978,0.8056,0.5503,0.1967,114.7500,-14.2000,-92.3300,-5.5700,-6.3000,-3.8300,0.0000,0.0000,-0.0000,1801.0000,1078.0000,1500.0000,2000.0000
219254.2580,2.0000,2000.0000,1000.0000,1608.0000,43.0000,-144.0000,-44.0000,1884.0000,-522.0000,3760.0000,0.1053,0.8057,0.5557,0.1762,114.6200,-14.3200,-92.4400,-5.5600,-6.4200,-3.4200,0.0000,0.0000,-0.0000,1809.0000,1085.0000,1500.0000,2000.0000
219271.2190,2.0000,2000.0000,1000.0000,1607.0000,47.0000,-156.0000,-44.0000,1804.0000,-916.0000,3889.0000,0.1133,0.8056,0.5608,0.1540,114.5000,-14.4400,-92.5400,-5.5500,-6.5100,-2.9900,0.0000,0.0000,-0.0000,1809.0000,1085.0000,1500.0000,2000.0000
219288.1710,2.0000,2000.0000,1000.0000,1607.0000,47.0000,-155.0000,-42.0000,2009.0000,-917.0000,4680.0000,0.1214,0.8054,0.5651,0.1310,114.3700,-14.5700,-92.6300,-5.5300,-6.7100,-2.4900,0.0000,0.0000,-0.0000,1809.0000,1085.0000,1500.0000,2000.0000
219305.1570,2.0000,2000.0000,1000.0000,1607.0000,51.0000,-151.0000,-42.0000,2089.0000,-717.0000,4862.0000,0.1293,0.8050,0.5689,0.1077,114.2300,-14.7200,-92.7200,-5.4500,-7.0100,-1.9200,0.0000,0.0000,-0.0000,1809.0000,1085.0000,1500.0000,2000.0000
219321.8150,2.0000,2000.0000,1000.0000,1607.0000,54.0000,-156.0000,-41.0000,2072.0000,-621.0000,4831.0000,0.1363,0.8041,0.5723,0.0850,114.2300,-14.7200,-92.7200,-5.4500,-7.0100,-1.9200,0.0000,0.0000,-0.0000,1809.0000,1085.0000,1500.0000,2000.0000
219338.3180,2.0000,2000.0000,1000.0000,1557.0000,56.0000,-156.0000,-41.0000,2078.0000,-760.0000,5032.0000,0.1433,0.8028,0.5755,0.0616,114.1100,-14.8700,-92.7900,-5.3600,-7.2300,-1.3600,0.0000,0.0000,-0.0000,1846.0000,1120.0000,1500.0000,2000.0000
219355.1240,2.0000,2000.0000,1000.0000,1535.0000,51.0000,-156.0000,-38.0000,2113.0000,-826.0000,5369.0000,0.1504,0.8010,0.5782,0.0383,113.9900,-15.0100,-92.8500,-5.2900,-7.4000,-0.7600,0.0000,0.0000,-0.0000,1846.0000,1120.0000,1500.0000,2000.0000
219371.5960,2.0000,2000.0000,1000.0000,1535.0000,55.0000,-154.0000,-36.0000,2065.0000,-841.0000,5395.0000,0.1572,0.7988,0.5805,0.0156,113.8800,-15.1500,-92.9000,-5.2400,-7.5100,-0.1200,0.0000,0.0000,-0.0000,1846.0000,1120.0000,1500.0000,2000.0000
219388.5800,2.0000,2000.0000,1000.0000,1535.0000,61.0000,-149.0000,-35.0000,1973.0000,-643.0000,5151.0000,0.1634,0.7967,0.5819,-0.0080,113.7700,-15.3100,-92.9500,-5.1400,-7.7300,0.5300,0.0000,0.0000,-0.0000,1846.0000,1120.0000,1500.0000,2000.0000
219405.5490,2.0000,2000.0000,1000.0000,1535.0000,69.0000,-149.0000,-36.0000,1943.0000,-881.0000,5324.0000,0.1687,0.7943,0.5827,-0.0317,113.6500,-15.5000,-92.9800,-5.0000,-8.0200,1.1600,0.0000,0.0000,-0.0000,1846.0000,1120.0000,1500.0000,2000.0000
219422.2890,2.0000,2000.0000,1000.0000,1535.0000,75.0000,-145.0000,-36.0000,1901.0000,-1194.0000,5240.0000,0.1726,0.7915,0.5836,-0.0558,113.6500,-15.5000,-92.9800,-5.0000,-8.0200,1.1600,0.0000,0.0000,-0.0000,1846.0000,1120.0000,1500.0000,2000.0000
219439.0520,2.0000,2000.0000,1000.0000,1547.0000,79.0000,-131.0000,-34.0000,1859.0000,-842.0000,4825.0000,0.1752,0.7886,0.5841,-0.0787,113.5500,-15.6800,-93.0000,-4.9300,-8.2400,1.8000,0.0000,0.0000,-0.0000,1824.0000,1130.0000,1500.0000,2000.0000
219455.8510,2.0000,2000.0000,1000.0000,1547.0000,83.0000,-127.0000,-35.0000,1904.0000,-555.0000,4910.0000,0.1768,0.7853,0.5846,-0.1013,113.4500,-15.8500,-93.0100,-4.8700,-8.4100,2.4000,0.0000,0.0000,-0.0000,1824.0000,1130.0000,1500.0000,2000.0000
219472.4860,2.0000,2000.0000,1000.0000,1547.0000,83.0000,-123.0000,-33.0000,1983.0000,-450.0000,5092.0000,0.1778,0.7817,0.5849,-0.1231,113.3600,-16.0100,-93.0100,-4.8000,-8.5300,2.9900,0.0000,0.0000,-0.0000,1824.0000,1130.0000,1500.0000,2000.0000
219489.5160,2.0000,2000.0000,1000.0000,1547.0000,87.0000,-125.0000,-34.0000,1831.0000,-607.0000,4818.0000,0.1780,0.7784,0.5841,-0.1457,113.2700,-16.2000,-93.0000,-4.5700,-8.6500,3.6000,0.0000,0.0000,-0.0000,1824.0000,1130.0000,1500.0000,2000.0000
219506.6050,2.0000,2000.0000,1000.0000,1547.0000,88.0000,-124.0000,-33.0000,1730.0000,-600.0000,4503.0000,0.1779,0.7748,0.5827,-0.1687,113.2000,-16.4000,-92.9900,-4.2800,-8.7600,4.1400,0.0000,0.0000,-0.0000,1824.0000,1130.0000,1500.0000,2000.0000
219523.4500,2.0000,2000.0000,1000.0000,1547.0000,90.0000,-132.0000,-34.0000,1770.0000,-547.0000,4584.0000,0.1781,0.7708,0.5809,-0.1916,113.2000,-16.4000,-92.9900,-4.2800,-8.7600,4.1400,0.0000,0.0000,-0.0000,1824.0000,1130.0000,1500.0000,2000.0000
219540.0170,2.0000,2000.0000,1000.0000,1547.0000,91.0000,-123.0000,-32.0000,1763.0000,-471.0000,4487.0000,0.1778,0.7664,0.5789,-0.2142,113.1300,-16.6000,-92.9600,-4.0400,-8.8400,4.7000,0.0000,0.0000,-0.0000,1824.0000,1130.0000,1500.0000,2000.0000
219556.6360,2.0000,2000.0000,1000.0000,1558.0000,93.0000,-128.0000,-32.0000,1821.0000,-384.0000,4664.0000,0.1773,0.7617,0.5766,-0.2365,113.0800,-16.7800,-92.9300,-3.8400,-8.8800,5.2500,0.0000,0.0000,-0.0000,1816.0000,1127.0000,1500.0000,2000.0000
219573.3850,2.0000,2000.0000,1000.0000,1558.0000,96.0000,-137.0000,-32.0000,1614.0000,-560.0000,4516.0000,0.1769,0.7564,0.5737,-0.2597,113.0300,-16.9500,-92.8800,-3.6700,-8.8800,5.8200,0.0000,0.0000,-0.0000,1816.0000,1127.0000,1500.0000,2000.0000
219590.1220,2.0000,2000.0000,1000.0000,1558.0000,95.0000,-132.0000,-30.0000,1644.0000,-543.0000,4565.0000,0.1763,0.7510,0.5696,-0.2836,112.9900,-17.1500,-92.8200,-3.3500,-8.8700,6.3500,0.0000,0.0000,-0.0000,1816.0000,1127.0000,1500.0000,2000.0000
219607.2320,2.0000,2000.0000,1000.0000,1558.0000,99.0000,-136.0000,-30.0000,1759.0000,-401.0000,4816.0000,0.1755,0.7453,0.5648,-0.3078,112.9900,-17.1500,-92.8200,-3.3500,-8.8700,6.3500,0.0000,0.0000,-0.0000,1816.0000,1127.0000,1500.0000,2000.0000
219623.8840,2.0000,2000.0000,1000.0000,1558.0000,99.0000,-139.0000,-28.0000,1802.0000,-435.0000,5100.0000,0.1746,0.7392,0.5597,-0.3314,112.9700,-17.3500,-92.7600,-2.9200,-8.8400,6.8900,0.0000,0.0000,-0.0000,1816.0000,1127.0000,1500.0000,2000.0000
219640.6240,2.0000,2000.0000,1000.0000,1558.0000,104.0000,-142.0000,-28.0000,1765.0000,-714.0000,5360.0000,0.1736,0.7325,0.5540,-0.3555,112.9600,-17.5400,-92.6800,-2.5700,-8.7700,7.4600,0.0000,0.0000,-0.0000,1816.0000,1127.0000,1500.0000,2000.0000
219657.6700,2.0000,2000.0000,1512.0000,2000.0000,103.0000,-144.0000,-28.0000,1690.0000,-709.0000,5454.0000,0.1726,0.7251,0.5476,-0.3802,112.9600,-17.7200,-92.5900,-2.3400,-8.6600,8.0400,0.0000,0.0000,-0.0000,1055.0000,1067.0000,1500.0000,2000.0000
219674.2380,2.0000,2000.0000,1512.0000,2000.0000,89.0000,-143.0000,-24.0000,1709.0000,-823.0000,5735.0000,0.1722,0.7173,0.5413,-0.4036,112.9500,-17.8800,-92.4800,-2.2000,-8.5300,8.6100,0.0000,0.0000,-0.0000,1055.0000,1067.0000,1500.0000,2000.0000
219691.2250,2.0000,2000.0000,1512.0000,2000.0000,49.0000,-149.0000,-16.0000,1588.0000,-973.0000,6004.0000,0.1746,0.7093,0.5347,-0.4249,112.9700,-18.0700,-92.3600,-1.9400,-8.3700,9.1800,0.0000,0.0000,-0.0000,1055.0000,1067.0000,1500.0000,2000.0000
219708.1020,2.0000,2000.0000,1512.0000,2000.0000,-6.0000,-152.0000,-2.0000,1445.0000,-958.0000,6074.0000,0.1833,0.7000,0.5297,-0.4426,112.9700,-18.0700,-92.3600,-1.9400,-8.3700,9.1800,0.0000,0.0000,-0.0000,1055.0000,1067.0000,1500.0000,2000.0000
219724.9910,2.0000,2000.0000,1512.0000,2000.0000,-52.0000,-146.0000,13.0000,1446.0000,-836.0000,6294.0000,0.1980,0.6901,0.5263,-0.4556,112.9900,-18.2500,-92.2300,-1.6500,-8.1900,9.7000,0.0000,0.0000,-0.0000,1055.0000,1067.0000,1500.0000,2000.0000
219741.9050,2.0000,2000.0000,1163.0000,1899.0000,-89.0000,-139.0000,25.0000,1742.0000,-634.0000,6714.0000,0.2172,0.6802,0.5243,-0.4639,113.0200,-18.4200,-92.0800,-1.3800,-7.9800,10.2000,0.0000,0.0000,-0.0000,1907.0000,1200.0000,1500.0000,2000.0000
219758.8970,2.0000,2000.0000,1000.0000,1394.0000,-114.0000,-134.0000,33.0000,1773.0000,-771.0000,7209.0000,0.2398,0.6701,0.5234,-0.4685,113.0600,-18.5800,-91.9400,-1.1200,-7.7300,10.7200,0.0000,0.0000,-0.0000,1907.0000,1200.0000,1500.0000,2000.0000
219775.6010,2.0000,2000.0000,1000.0000,1394.0000,-110.0000,-124.0000,36.0000,1535.0000,-1185.0000,7380.0000,0.2628,0.6602,0.5227,-0.4710,113.1000,-18.7200,-91.7800,-0.8900,-7.4400,11.2500,0.0000,0.0000,-0.0000,1907.0000,1200.0000,1500.0000,2000.0000
219792.6660,2.0000,2000.0000,1000.0000,1394.0000,-74.0000,-132.0000,33.0000,1337.0000,-1114.0000,6815.0000,0.2838,0.6507,0.5198,-0.4753,113.1600,-18.8900,-91.6200,-0.6100,-7.2000,11.7200,0.0000,0.0000,-0.0000,1907.0000,1200.0000,1500.0000,2000.0000
219809.5920,2.0000,2000.0000,1000.0000,1394.0000,-27.0000,-134.0000,22.0000,1396.0000,-748.0000,6660.0000,0.3002,0.6417,0.5143,-0.4833,113.1600,-18.8900,-91.6200,-0.6100,-7.2000,11.7200,0.0000,0.0000,-0.0000,1907.0000,1200.0000,1500.0000,2000.0000
219826.5190,2.0000,2000.0000,1000.0000,1394.0000,33.0000,-129.0000,8.0000,1385.0000,-489.0000,6771.0000,0.3104,0.6340,0.5059,-0.4958,113.2300,-19.0600,-91.4500,-0.2800,-7.0000,12.1400,0.0000,0.0000,-0.0000,1907.0000,1200.0000,1500.0000,2000.0000
219843.1980,2.0000,2000.0000,1000.0000,1394.0000,85.0000,-121.0000,-4.0000,1377.0000,-518.0000,7110.0000,0.3137,0.6281,0.4949,-0.5120,113.3000,-19.2100,-91.2800,0.0300,-6.8000,12.5500,0.0000,0.0000,-0.0000,1907.0000,1200.0000,1500.0000,2000.0000
219859.9910,2.0000,2000.0000,1473.0000,2000.0000,124.0000,-106.0000,-14.0000,1464.0000,-587.0000,7569.0000,0.3108,0.6242,0.4820,-0.5305,113.3800,-19.3600,-91.1000,0.3000,-6.5600,12.9400,0.0000,0.0000,-0.0000,1083.0000,1056.0000,1500.0000,2000.0000
219876.9610,2.0000,2000.0000,1473.0000,2000.0000,151.0000,-92.0000,-23.0000,1280.0000,-617.0000,7128.0000,0.3028,0.6217,0.4675,-0.5507,113.4600,-19.4900,-90.9100,0.4900,-6.3200,13.3200,0.0000,0.0000,-0.0000,1083.0000,1056.0000,1500.0000,2000.0000
219893.9190,2.0000,2000.0000,1473.0000,2000.0000,156.0000,-84.0000,-30.0000,1124.0000,-614.0000,6455.0000,0.2912,0.6203,0.4523,-0.5708,113.5500,-19.6500,-90.7200,0.6600,-6.2200,13.6000,0.0000,0.0000,-0.0000,1083.0000,1056.0000,1500.0000,2000.0000
219910.9990,2.0000,2000.0000,1473.0000,2000.0000,106.0000,-84.0000,-31.0000,1112.0000,-813.0000,6321.0000,0.2809,0.6174,0.4392,-0.5890,113.5500,-19.6500,-90.7200,0.6600,-6.2200,13.6000,0.0000,0.0000,-0.0000,1083.0000,1056.0000,1500.0000,2000.0000
219927.7190,2.0000,2000.0000,1473.0000,2000.0000,33.0000,-92.0000,-24.0000,856.0000,-749.0000,5494.0000,0.2770,0.6114,0.4312,-0.6029,113.6400,-19.8100,-90.5200,0.7900,-6.2100,13.8300,0.0000,0.0000,-0.0000,1083.0000,1056.0000,1500.0000,2000.0000
219944.5580,2.0000,2000.0000,1445.0000,2000.0000,-37.0000,-107.0000,-13.0000,888.0000,-643.0000,5223.0000,0.2811,0.6019,0.4282,-0.6126,113.7300,-19.9700,-90.3300,0.8900,-6.2300,14.0100,0.0000,0.0000,-0.0000,1152.0000,1097.0000,1500.0000,2000.0000
219961.2300,2.0000,2000.0000,1445.0000,2000.0000,-88.0000,-120.0000,-3.0000,888.0000,-502.0000,5408.0000,0.2923,0.5890,0.4292,-0.6192,113.8200,-20.1200,-90.1300,1.0100,-6.2700,14.1900,0.0000,0.0000,-0.0000,1152.0000,1097.0000,1500.0000,2000.0000
219978.5410,2.0000,2000.0000,1445.0000,2000.0000,-122.0000,-128.0000,7.0000,1014.0000,-495.0000,6277.0000,0.3090,0.5733,0.4325,-0.6236,113.9000,-20.2600,-89.9400,1.1200,-6.2600,14.3700,0.0000,0.0000,-0.0000,1152.0000,1097.0000,1500.0000,2000.0000
219995.2150,2.0000,2000.0000,1445.0000,2000.0000,-136.0000,-135.0000,10.0000,1062.0000,-737.0000,7303.0000,0.3277,0.5565,0.4366,-0.6264,113.9800,-20.4400,-89.7300,1.0300,-6.2200,14.5800,0.0000,0.0000,-0.0000,1152.0000,1097.0000,1500.0000,2000.0000
220011.9160,2.0000,2000.0000,1445.0000,2000.0000,-149.0000,-134.0000,15.0000,1147.0000,-1023.0000,8367.0000,0.3479,0.5386,0.4412,-0.6278,113.9800,-20.4400,-89.7300,1.0300,-6.2200,14.5800,0.0000,0.0000,-0.0000,1152.0000,1097.0000,1500.0000,2000.0000
220028.5930,2.0000,2000.0000,1445.0000,2000.0000,-153.0000,-132.0000,18.0000,1120.0000,-1028.0000,8709.0000,0.3688,0.5201,0.4459,-0.6282,114.0500,-20.6200,-89.5100,0.8500,-6.0500,14.7600,0.0000,0.0000,-0.0000,1152.0000,1097.0000,1500.0000,2000.0000
220045.3890,2.0000,2000.0000,1445.0000,2000.0000,-158.0000,-128.0000,20.0000,1080.0000,-732.0000,8498.0000,0.3898,0.5013,0.4508,-0.6273,114.1100,-20.7800,-89.2800,0.6600,-5.7700,14.9100,0.0000,0.0000,-0.0000,1152.0000,1097.0000,1500.0000,2000.0000
220062.3620,2.0000,2000.0000,1000.0000,1564.0000,-161.0000,-122.0000,24.0000,1095.0000,-836.0000,8868.0000,0.4109,0.4824,0.4558,-0.6251,114.1600,-20.9200,-89.0500,0.5400,-5.4400,15.0500,0.0000,0.0000,-0.0000,1839.0000,1098.0000,1500.0000,2000.0000
220079.2230,2.0000,2000.0000,1000.0000,1564.0000,-161.0000,-121.0000,25.0000,1126.0000,-806.0000,9417.0000,0.4319,0.4634,0.4609,-0.6216,114.2000,-21.0500,-88.8000,0.4400,-5.0400,15.1500,0.0000,0.0000,-0.0000,1839.0000,1098.0000,1500.0000,2000.0000
220095.8340,2.0000,2000.0000,1000.0000,1564.0000,-135.0000,-127.0000,21.0000,1099.0000,-1124.0000,9264.0000,0.4515,0.4447,0.4645,-0.6186,114.2300,-21.1900,-88.5500,0.2800,-4.6100,15.2400,0.0000,0.0000,-0.0000,1839.0000,1098.0000,1500.0000,2000.0000
220112.5810,2.0000,2000.0000,1000.0000,1564.0000,-86.0000,-133.0000,12.0000,1067.0000,-1040.0000,8980.0000,0.4684,0.4270,0.4645,-0.6185,114.2300,-21.1900,-88.5500,0.2800,-4.6100,15.2400,0.0000,0.0000,-0.0000,1839.0000,1098.0000,1500.0000,2000.0000
220129.4730,2.0000,2000.0000,1000.0000,1564.0000,-26.0000,-138.0000,-3.0000,1019.0000,-1016.0000,8783.0000,0.4811,0.4113,0.4594,-0.6231,114.2600,-21.3300,-88.2900,0.1400,-4.2200,15.2900,0.0000,0.0000,-0.0000,1839.0000,1098.0000,1500.0000,2000.0000
220146.3450,2.0000,2000.0000,1064.0000,1936.0000,23.0000,-148.0000,-20.0000,1085.0000,-1025.0000,9481.0000,0.4893,0.3974,0.4499,-0.6327,114.2900,-21.4500,-88.0400,0.0500,-3.8700,15.3000,0.0000,0.0000,-0.0000,1502.0000,1063.0000,1500.0000,2000.0000
220163.1160,2.0000,2000.0000,1063.0000,1937.0000,54.0000,-148.0000,-32.0000,1084.0000,-837.0000,9585.0000,0.4938,0.3851,0.4367,-0.6459,114.3100,-21.5600,-87.7800,-0.0200,-3.5000,15.2700,0.0000,0.0000,-0.0000,1502.0000,1063.0000,1500.0000,2000.0000
220180.0500,2.0000,2000.0000,1063.0000,1937.0000,71.0000,-159.0000,-37.0000,1053.0000,-815.0000,9657.0000,0.4962,0.3729,0.4210,-0.6614,114.3300,-21.6600,-87.5200,-0.0900,-3.1200,15.2000,0.0000,0.0000,-0.0000,1502.0000,1063.0000,1500.0000,2000.0000
220196.9080,2.0000,2000.0000,1063.0000,1937.0000,55.0000,-170.0000,-37.0000,968.0000,-945.0000,10059.0000,0.4987,0.3593,0.4046,-0.6771,114.3400,-21.7700,-87.2600,-0.2200,-2.7300,15.0700,0.0000,0.0000,-0.0000,1502.0000,1063.0000,1500.0000,2000.0000
220213.6280,2.0000,2000.0000,1063.0000,1937.0000,32.0000,-174.0000,-29.0000,911.0000,-1226.0000,11036.0000,0.5031,0.3433,0.3892,-0.6911,114.3400,-21.7700,-87.2600,-0.2200,-2.7300,15.0700,0.0000,0.0000,-0.0000,1502.0000,1063.0000,1500.0000,2000.0000
220230.7050,2.0000,2000.0000,1063.0000,1937.0000,23.0000,-177.0000,-19.0000,1069.0000,-1573.0000,12395.0000,0.5093,0.3256,0.3745,-0.7031,114.3500,-21.8700,-87.0000,-0.3800,-2.3000,14.8400,0.0000,0.0000,-0.0000,1502.0000,1063.0000,1500.0000,2000.0000
220247.5910,2.0000,2000.0000,1539.0000,2000.0000,15.0000,-171.0000,-10.0000,1358.0000,-1753.0000,13580.0000,0.5166,0.3079,0.3600,-0.7133,114.3600,-21.9600,-86.7400,-0.5900,-1.7700,14.4700,0.0000,0.0000,-0.0000,1028.0000,1090.0000,1500.0000,2000.0000
220264.3710,2.0000,2000.0000,1562.0000,2000.0000,4.0000,-161.0000,-1.0000,1371.0000,-1672.0000,14185.0000,0.5243,0.2908,0.3466,-0.7214,114.3600,-22.0200,-86.5000,-0.8000,-1.1500,14.0000,0.0000,0.0000,-0.0000,1028.0000,1090.0000,1500.0000,2000.0000
220281.2490,2.0000,2000.0000,1562.0000,2000.0000,-9.0000,-156.0000,5.0000,1373.0000,-1808.0000,14336.0000,0.5328,0.2736,0.3344,-0.7276,114.3600,-22.0800,-86.2600,-1.0000,-0.5100,13.4200,0.0000,0.0000,-0.0000,1028.0000,1090.0000,1500.0000,2000.0000
220298.1470,2.0000,2000.0000,1562.0000,2000.0000,-46.0000,-138.0000,15.0000,1308.0000,-1534.0000,14534.0000,0.5421,0.2559,0.3251,-0.7314,114.3500,-22.1200,-86.0300,-1.1500,0.1500,12.7600,0.0000,0.0000,-0.0000,1028.0000,1090.0000,1500.0000,2000.0000
220315.1020,2.0000,2000.0000,1562.0000,2000.0000,-96.0000,-110.0000,25.0000,1229.0000,-1481.0000,14681.0000,0.5529,0.2377,0.3220,-0.7309,114.3500,-22.1200,-86.0300,-1.1500,0.1500,12.7600,0.0000,0.0000,-0.0000,1028.0000,1090.0000,1500.0000,2000.0000
220331.9970,2.0000,2000.0000,1562.0000,2000.0000,-141.0000,-78.0000,32.0000,1130.0000,-1270.0000,14262.0000,0.5646,0.2189,0.3261,-0.7259,114.3400,-22.1500,-85.8100,-1.2300,0.8200,12.0300,0.0000,0.0000,-0.0000,1028.0000,1090.0000,1500.0000,2000.0000
220349.0070,2.0000,2000.0000,1000.0000,1586.0000,-181.0000,-35.0000,37.0000,997.0000,-1194.0000,13061.0000,0.5763,0.2006,0.3379,-0.7166,114.3300,-22.1700,-85.6000,-1.2300,1.4200,11.2900,0.0000,0.0000,-0.0000,1825.0000,1091.0000,1500.0000,2000.0000
220365.7400,2.0000,2000.0000,1000.0000,1585.0000,-202.0000,-10.0000,41.0000,792.0000,-1023.0000,10900.0000,0.5868,0.1839,0.3553,-0.7040,114.3200,-22.1800,-85.4100,-1.1400,1.8900,10.6200,0.0000,0.0000,-0.0000,1825.0000,1091.0000,1500.0000,2000.0000
220382.7770,2.0000,2000.0000,1000.0000,1585.0000,-196.0000,-20.0000,45.0000,560.0000,-862.0000,8262.0000,0.5974,0.1671,0.3741,-0.6894,114.3200,-22.1800,-85.2400,-0.9900,2.1000,10.1300,0.0000,0.0000,-0.0000,1825.0000,1091.0000,1500.0000,2000.0000
220399.5490,2.0000,2000.0000,1000.0000,1585.0000,-154.0000,-50.0000,38.0000,341.0000,-690.0000,6629.0000,0.6077,0.1504,0.3877,-0.6765,114.3200,-22.2000,-85.0800,-0.8200,2.1000,9.8100,0.0000,0.0000,-0.0000,1825.0000,1091.0000,1500.0000,2000.0000
220416.5860,2.0000,2000.0000,1000.0000,1585.0000,-82.0000,-83.0000,19.0000,251.0000,-526.0000,6232.0000,0.6172,0.1345,0.3926,-0.6685,114.3200,-22.2000,-85.0800,-0.8200,2.1000,9.8100,0.0000,0.0000,-0.0000,1825.0000,1091.0000,1500.0000,2000.0000
220433.2790,2.0000,2000.0000,1000.0000,1585.0000,-17.0000,-111.0000,-5.0000,285.0000,-504.0000,7168.0000,0.6242,0.1212,0.3886,-0.6669,114.3200,-22.2200,-84.9300,-0.6400,1.9400,9.5700,0.0000,0.0000,-0.0000,1825.0000,1091.0000,1500.0000,2000.0000
220450.0430,2.0000,2000.0000,1097.0000,1119.0000,41.0000,-139.0000,-26.0000,400.0000,-726.0000,8319.0000,0.6297,0.1088,0.3759,-0.6711,114.3400,-22.2600,-84.7900,-0.4200,1.7600,9.2900,0.0000,0.0000,-0.0000,1894.0000,1488.0000,1500.0000,2000.0000
220466.9130,2.0000,2000.0000,1096.0000,1118.0000,76.0000,-152.0000,-43.0000,559.0000,-779.0000,9334.0000,0.6334,0.0976,0.3571,-0.6795,114.3500,-22.3000,-84.6600,-0.1900,1.6400,8.8900,0.0000,0.0000,-0.0000,1894.0000,1488.0000,1500.0000,2000.0000
220483.8410,2.0000,2000.0000,1096.0000,1118.0000,126.0000,-139.0000,-52.0000,740.0000,-1037.0000,10645.0000,0.6350,0.0897,0.3339,-0.6908,114.3700,-22.3400,-84.5400,0.0300,1.6100,8.3800,0.0000,0.0000,-0.0000,1894.0000,1488.0000,1500.0000,2000.0000
220500.7370,2.0000,2000.0000,1096.0000,1118.0000,192.0000,-93.0000,-54.0000,771.0000,-1324.0000,11622.0000,0.6332,0.0899,0.3071,-0.7048,114.3700,-22.3400,-84.5400,0.0300,1.6100,8.3800,0.0000,0.0000,-0.0000,1894.0000,1488.0000,1500.0000,2000.0000
220517.7450,2.0000,2000.0000,1096.0000,1118.0000,276.0000,-23.0000,-46.0000,604.0000,-1286.0000,11486.0000,0.6272,0.1036,0.2770,-0.7205,114.3800,-22.3600,-84.4200,-0.0300,1.9100,7.7300,0.0000,0.0000,-0.0000,1894.0000,1488.0000,1500.0000,2000.0000
220534.3010,2.0000,2000.0000,1096.0000,1118.0000,364.0000,32.0000,-38.0000,382.0000,-1335.0000,9749.0000,0.6176,0.1305,0.2449,-0.7359,114.3800,-22.3900,-84.3200,-0.1500,2.1600,7.0000,0.0000,0.0000,-0.0000,1894.0000,1488.0000,1500.0000,2000.0000
220551.1690,2.0000,2000.0000,2000.0000,1698.0000,445.0000,68.0000,-34.0000,46.0000,-827.0000,6528.0000,0.6033,0.1716,0.2055,-0.7513,114.3700,-22.4200,-84.2400,-0.4200,2.2200,6.3600,0.0000,0.0000,-0.0000,1047.0000,1756.0000,1500.0000,2000.0000
220567.7510,2.0000,2000.0000,2000.0000,1698.0000,488.0000,117.0000,-27.0000,-159.0000,-459.0000,3193.0000,0.5843,0.2215,0.1627,-0.7636,114.3700,-22.4600,-84.1800,-0.7700,1.9800,6.0100,0.0000,0.0000,-0.0000,1047.0000,1756.0000,1500.0000,2000.0000
220584.6540,2.0000,2000.0000,2000.0000,1698.0000,443.0000,135.0000,-20.0000,227.0000,-208.0000,648.0000,0.5618,0.2760,0.1212,-0.7704,114.3500,-22.5200,-84.1400,-1.1100,1.5200,5.9600,0.0000,0.0000,-0.0000,1047.0000,1756.0000,1500.0000,2000.0000
220601.4670,2.0000,2000.0000,2000.0000,1698.0000,314.0000,147.0000,-1.0000,395.0000,-216.0000,-1440.0000,0.5416,0.3231,0.0904,-0.7707,114.3500,-22.5200,-84.1400,-1.1100,1.5200,5.9600,0.0000,0.0000,-0.0000,1047.0000,1756.0000,1500.0000,2000.0000
220618.2050,2.0000,2000.0000,2000.0000,1698.0000,143.0000,146.0000,21.0000,476.0000,-295.0000,-3348.0000,0.5294,0.3574,0.0753,-0.7657,114.3100,-22.5100,-84.0600,-1.3900,1.8600,6.1500,0.0000,0.0000,-0.0000,1047.0000,1756.0000,1500.0000,2000.0000
220634.7830,2.0000,2000.0000,2000.0000,1698.0000,-54.0000,142.0000,45.0000,-47.0000,-75.0000,-4826.0000,0.5292,0.3768,0.0799,-0.7560,114.2800,-22.4900,-83.9900,-1.5300,2.0700,6.5100,0.0000,0.0000,-0.0000,1047.0000,1756.0000,1500.0000,2000.0000
220651.4350,2.0000,2000.0000,1713.0000,1629.0000,-200.0000,146.0000,66.0000,-539.0000,51.0000,-4976.0000,0.5408,0.3824,0.1023,-0.7422,114.2400,-22.4700,-83.9100,-1.5500,2.1200,6.8400,0.0000,0.0000,-0.0000,1355.0000,1523.0000,1500.0000,2000.0000
220668.1060,2.0000,2000.0000,1665.0000,1623.0000,-305.0000,156.0000,75.0000,-120.0000,482.0000,-5569.0000,0.5599,0.3792,0.1379,-0.7237,114.2000,-22.4600,-83.8300,-1.5200,2.1000,7.1300,0.0000,0.0000,-0.0000,1355.0000,1523.0000,1500.0000,2000.0000
220684.8500,2.0000,2000.0000,1665.0000,1623.0000,-361.0000,154.0000,70.0000,132.0000,872.0000,-6574.0000,0.5822,0.3692,0.1821,-0.7012,114.1700,-22.4400,-83.7500,-1.4600,2.0200,7.4600,0.0000,0.0000,-0.0000,1355.0000,1523.0000,1500.0000,2000.0000
220701.6560,2.0000,2000.0000,1665.0000,1623.0000,-375.0000,129.0000,57.0000,-11.0000,1154.0000,-7420.0000,0.6041,0.3528,0.2287,-0.6769,114.1700,-22.4400,-83.7500,-1.4600,2.0200,7.4600,0.0000,0.0000,-0.0000,1355.0000,1523.0000,1500.0000,2000.0000
220718.6060,2.0000,2000.0000,1665.0000,1623.0000,-356.0000,89.0000,37.0000,-290.0000,1284.0000,-7989.0000,0.6233,0.3318,0.2725,-0.6536,114.1300,-22.3400,-83.6500,-1.4000,2.3500,7.7800,0.0000,0.0000,-0.0000,1355.0000,1523.0000,1500.0000,2000.0000
220735.5270,2.0000,2000.0000,1665.0000,1623.0000,-321.0000,48.0000,13.0000,-203.0000,1621.0000,-6985.0000,0.6385,0.3082,0.3097,-0.6335,114.0900,-22.2500,-83.5600,-1.3800,2.4600,8.1300,0.0000,0.0000,-0.0000,1355.0000,1523.0000,1500.0000,2000.0000
220752.4210,2.0000,2000.0000,1000.0000,1611.0000,-310.0000,22.0000,-15.0000,-66.0000,1543.0000,-3807.0000,0.6502,0.2813,0.3416,-0.6176,114.0500,-22.1700,-83.4700,-1.4100,2.5500,8.4700,0.0000,0.0000,-0.0000,1810.0000,1080.0000,1500.0000,2000.0000
220769.1660,2.0000,2000.0000,1000.0000,1611.0000,-304.0000,18.0000,-43.0000,33.0000,1113.0000,-445.0000,0.6582,0.2521,0.3716,-0.6043,114.0100,-22.0800,-83.4000,-1.4900,2.9500,8.7200,0.0000,0.0000,-0.0000,1810.0000,1080.0000,1500.0000,2000.0000
220786.2120,2.0000,2000.0000,1000.0000,1611.0000,-282.0000,25.0000,-70.0000,-266.0000,1155.0000,896.0000,0.6617,0.2222,0.4020,-0.5926,113.9700,-21.9800,-83.3200,-1.5700,3.6000,8.8300,0.0000,0.0000,-0.0000,1810.0000,1080.0000,1500.0000,2000.0000
220803.2080,2.0000,2000.0000,1000.0000,1611.0000,-233.0000,27.0000,-91.0000,-196.0000,990.0000,465.0000,0.6609,0.1942,0.4301,-0.5836,113.9700,-21.9800,-83.3200,-1.5700,3.6000,8.8300,0.0000,0.0000,-0.0000,1810.0000,1080.0000,1500.0000,2000.0000
220819.9050,2.0000,2000.0000,1000.0000,1611.0000,-158.0000,-1.0000,-109.0000,6.0000,516.0000,-320.0000,0.6568,0.1701,0.4505,-0.5803,113.9200,-21.7900,-83.2200,-1.6000,4.5600,9.1500,0.0000,0.0000,-0.0000,1810.0000,1080.0000,1500.0000,2000.0000
220836.5300,2.0000,2000.0000,1000.0000,1611.0000,-66.0000,-49.0000,-131.0000,-83.0000,357.0000,-295.0000,0.6510,0.1492,0.4605,-0.5847,113.8700,-21.6000,-83.0900,-1.7000,5.3500,9.4900,0.0000,0.0000,-0.0000,1810.0000,1080.0000,1500.0000,2000.0000
220853.6510,2.0000,2000.0000,1073.0000,1051.0000,17.0000,-97.0000,-148.0000,-345.0000,-87.0000,1200.0000,0.6444,0.1306,0.4586,-0.5978,113.8200,-21.4000,-82.9500,-1.8300,6.1200,9.8300,0.0000,0.0000,-0.0000,1939.0000,1513.0000,1500.0000,2000.0000
220870.2730,2.0000,2000.0000,1073.0000,1051.0000,90.0000,-134.0000,-154.0000,-234.0000,-761.0000,4432.0000,0.6381,0.1148,0.4455,-0.6174,113.7700,-21.1800,-82.8000,-1.9300,7.0200,10.0800,0.0000,0.0000,-0.0000,1939.0000,1513.0000,1500.0000,2000.0000
220887.3360,2.0000,2000.0000,1073.0000,1051.0000,174.0000,-134.0000,-149.0000,-88.0000,-1676.0000,7783.0000,0.6309,0.1041,0.4229,-0.6421,113.7200,-20.9400,-82.6400,-1.9400,8.1100,10.1000,0.0000,0.0000,-0.0000,1939.0000,1513.0000,1500.0000,2000.0000
220904.1110,2.0000,2000.0000,1073.0000,1051.0000,283.0000,-96.0000,-120.0000,135.0000,-2711.0000,11247.0000,0.6218,0.1057,0.3918,-0.6698,113.7200,-20.9400,-82.6400,-1.9400,8.1100,10.1000,0.0000,0.0000,-0.0000,1939.0000,1513.0000,1500.0000,2000.0000
220920.8280,2.0000,2000.0000,1073.0000,1051.0000,406.0000,-41.0000,-83.0000,159.0000,-3454.0000,12811.0000,0.6103,0.1236,0.3532,-0.6983,113.6600,-20.6000,-82.4300,-1.9100,9.6200,9.8700,0.0000,0.0000,-0.0000,1939.0000,1513.0000,1500.0000,2000.0000
220937.5170,2.0000,2000.0000,1649.0000,1345.0000,532.0000,31.0000,-37.0000,-41.0000,-3251.0000,11840.0000,0.5952,0.1618,0.3047,-0.7258,113.6000,-20.2400,-82.2300,-1.9800,11.0900,9.3500,0.0000,0.0000,-0.0000,1044.0000,1803.0000,1500.0000,2000.0000
220954.3130,2.0000,2000.0000,2000.0000,1654.0000,597.0000,103.0000,10.0000,-267.0000,-2654.0000,9464.0000,0.5759,0.2173,0.2490,-0.7478,113.5400,-19.8800,-82.0300,-2.2100,12.2600,8.7900,0.0000,0.0000,-0.0000,1044.0000,1803.0000,1500.0000,2000.0000
220971.2100,2.0000,2000.0000,2000.0000,1654.0000,620.0000,173.0000,51.0000,-272.0000,-2128.0000,5704.0000,0.5528,0.2852,0.1913,-0.7593,113.4700,-19.5200,-81.8400,-2.5500,13.0200,8.4100,0.0000,0.0000,-0.0000,1044.0000,1803.0000,1500.0000,2000.0000
220988.3290,2.0000,2000.0000,2000.0000,1654.0000,550.0000,210.0000,89.0000,-230.0000,-1224.0000,880.0000,0.5282,0.3566,0.1368,-0.7584,113.3800,-19.0700,-81.6200,-2.9100,13.5200,8.4200,0.0000,0.0000,-0.0000,1044.0000,1803.0000,1500.0000,2000.0000
221005.1670,2.0000,2000.0000,2000.0000,1654.0000,393.0000,213.0000,123.0000,-324.0000,-734.0000,-4450.0000,0.5097,0.4182,0.0951,-0.7458,113.3800,-19.0700,-81.6200,-2.9100,13.5200,8.4200,0.0000,0.0000,-0.0000,1044.0000,1803.0000,1500.0000,2000.0000
221022.0190,2.0000,2000.0000,2000.0000,1654.0000,182.0000,185.0000,157.0000,-16.0000,-204.0000,-8929.0000,0.5041,0.4632,0.0702,-0.7255,113.2900,-18.6600,-81.4000,-2.9600,13.6100,8.7800,0.0000,0.0000,-0.0000,1044.0000,1803.0000,1500.0000,2000.0000
221038.7190,2.0000,2000.0000,1892.0000,1960.0000,-31.0000,145.0000,177.0000,136.0000,393.0000,-11191.0000,0.5153,0.4871,0.0632,-0.7022,113.2100,-18.2600,-81.1700,-2.6200,13.4000,9.2400,0.0000,0.0000,-0.0000,1075.0000,1448.0000,1500.0000,2000.0000
221055.5650,2.0000,2000.0000,1874.0000,1976.0000,-167.0000,88.0000,179.0000,-319.0000,958.0000,-10640.0000,0.5396,0.4928,0.0690,-0.6792,113.1400,-17.9000,-80.9600,-2.0700,13.0500,9.7200,0.0000,0.0000,-0.0000,1075.0000,1448.0000,1500.0000,2000.0000
221072.0600,2.0000,2000.0000,1874.0000,1976.0000,-273.0000,56.0000,170.0000,-625.0000,1420.0000,-8844.0000,0.5708,0.4842,0.0833,-0.6578,113.0900,-17.5700,-80.7700,-1.6200,12.7200,9.9000,0.0000,0.0000,-0.0000,1075.0000,1448.0000,1500.0000,2000.0000
221088.9630,2.0000,2000.0000,1874.0000,1976.0000,-355.0000,-1.0000,153.0000,-540.0000,1748.0000,-6872.0000,0.6075,0.4619,0.1043,-0.6378,113.0500,-17.2500,-80.6000,-1.3800,12.5100,10.0300,0.0000,0.0000,-0.0000,1075.0000,1448.0000,1500.0000,2000.0000
221105.9430,2.0000,2000.0000,1874.0000,1976.0000,-455.0000,-27.0000,119.0000,-738.0000,1827.0000,-3921.0000,0.6469,0.4251,0.1318,-0.6192,113.0500,-17.2500,-80.6000,-1.3800,12.5100,10.0300,0.0000,0.0000,-0.0000,1075.0000,1448.0000,1500.0000,2000.0000
221123.1600,2.0000,2000.0000,1874.0000,1976.0000,-536.0000,-40.0000,72.0000,-931.0000,2137.0000,223.0000,0.6861,0.3742,0.1678,-0.6009,112.9700,-16.8600,-80.4300,-1.5300,12.5700,10.1100,0.0000,0.0000,-0.0000,1075.0000,1448.0000,1500.0000,2000.0000
221139.9070,2.0000,2000.0000,1874.0000,1976.0000,-581.0000,-34.0000,34.0000,-563.0000,2132.0000,5204.0000,0.7197,0.3140,0.2096,-0.5827,112.9000,-16.5000,-80.2700,-1.7900,12.8400,10.1700,0.0000,0.0000,-0.0000,1075.0000,1448.0000,1500.0000,2000.0000
221156.6520,2.0000,2000.0000,1000.0000,1480.0000,-605.0000,31.0000,-5.0000,-70.0000,1523.0000,9475.0000,0.7453,0.2505,0.2583,-0.5614,112.8300,-16.1500,-80.1000,-2.0600,13.4100,10.0500,0.0000,0.0000,-0.0000,1887.0000,1139.0000,1500.0000,2000.0000
221173.3520,2.0000,2000.0000,1000.0000,1475.0000,-594.0000,101.0000,-50.0000,116.0000,1600.0000,10987.0000,0.7595,0.1879,0.3143,-0.5376,112.7500,-15.7900,-79.9200,-2.1900,14.2200,9.8200,0.0000,0.0000,-0.0000,1887.0000,1139.0000,1500.0000,2000.0000
221190.5720,2.0000,2000.0000,1000.0000,1475.0000,-550.0000,172.0000,-90.0000,-98.0000,1429.0000,9789.0000,0.7602,0.1293,0.3767,-0.5133,112.6500,-15.3600,-79.7200,-2.1600,15.0500,9.5500,0.0000,0.0000,-0.0000,1887.0000,1139.0000,1500.0000,2000.0000
221207.1850,2.0000,2000.0000,1000.0000,1475.0000,-459.0000,210.0000,-124.0000,-35.0000,1103.0000,6818.0000,0.7484,0.0815,0.4366,-0.4926,112.6500,-15.3600,-79.7200,-2.1600,15.0500,9.5500,0.0000,0.0000,-0.0000,1887.0000,1139.0000,1500.0000,2000.0000
221223.8380,2.0000,2000.0000,1000.0000,1475.0000,-320.0000,208.0000,-153.0000,42.0000,583.0000,2765.0000,0.7278,0.0450,0.4883,-0.4794,112.5600,-14.9400,-79.5100,-2.1200,15.5700,9.4900,0.0000,0.0000,-0.0000,1887.0000,1139.0000,1500.0000,2000.0000
221240.5030,2.0000,2000.0000,1000.0000,1475.0000,-159.0000,175.0000,-178.0000,-125.0000,412.0000,-1530.0000,0.7035,0.0211,0.5254,-0.4781,112.4700,-14.5400,-79.2900,-2.2900,15.7800,9.7100,0.0000,0.0000,-0.0000,1887.0000,1139.0000,1500.0000,2000.0000
221257.5550,2.0000,2000.0000,1009.0000,1263.0000,-19.0000,119.0000,-197.0000,-539.0000,272.0000,-5585.0000,0.6789,0.0070,0.5471,-0.4897,112.3800,-14.1600,-79.0600,-2.7900,15.6900,10.1200,0.0000,0.0000,-0.0000,1865.0000,1372.0000,1500.0000,2000.0000
221274.2710,2.0000,2000.0000,1009.0000,1263.0000,96.0000,64.0000,-204.0000,-696.0000,-165.0000,-7196.0000,0.6572,0.0010,0.5530,-0.5121,112.2800,-13.7900,-78.8200,-3.5000,15.4100,10.6100,0.0000,0.0000,-0.0000,1865.0000,1372.0000,1500.0000,2000.0000
221291.0450,2.0000,2000.0000,1009.0000,1263.0000,210.0000,19.0000,-199.0000,-638.0000,-1020.0000,-5715.0000,0.6386,0.0021,0.5449,-0.5434,112.2800,-13.7900,-78.8200,-3.5000,15.4100,10.6100,0.0000,0.0000,-0.0000,1865.0000,1372.0000,1500.0000,2000.0000
221307.7230,2.0000,2000.0000,1009.0000,1263.0000,292.0000,-11.0000,-184.0000,-755.0000,-1626.0000,-3600.0000,0.6225,0.0107,0.5244,-0.5809,112.1500,-13.3700,-78.5600,-4.1800,15.2500,10.9600,0.0000,0.0000,-0.0000,1865.0000,1372.0000,1500.0000,2000.0000
221324.4090,2.0000,2000.0000,1009.0000,1263.0000,386.0000,-38.0000,-148.0000,-594.0000,-2737.0000,-1263.0000,0.6090,0.0263,0.4930,-0.6207,112.0200,-12.9700,-78.3000,-4.6500,15.2300,11.2400,0.0000,0.0000,-0.0000,1865.0000,1372.0000,1500.0000,2000.0000
221341.0880,2.0000,2000.0000,1009.0000,1263.0000,468.0000,-78.0000,-99.0000,-604.0000,-3510.0000,2131.0000,0.5998,0.0493,0.4487,-0.6607,111.8900,-12.6000,-78.0500,-4.9700,15.3500,11.4000,0.0000,0.0000,-0.0000,1865.0000,1372.0000,1500.0000,2000.0000
221358.0340,2.0000,1953.0000,2000.0000,1866.0000,529.0000,-87.0000,-53.0000,-228.0000,-3509.0000,6704.0000,0.5934,0.0799,0.3913,-0.6988,111.7600,-12.2500,-77.7900,-5.1300,15.6600,11.3300,0.0000,0.0000,-0.0000,1035.0000,1601.0000,1500.0000,1956.0000
221374.8180,2.0000,1953.0000,2000.0000,1866.0000,523.0000,-78.0000,7.0000,130.0000,-3274.0000,10044.0000,0.5885,0.1159,0.3286,-0.7295,111.6400,-11.8800,-77.5400,-5.0900,16.2300,10.9600,0.0000,0.0000,-0.0000,1035.0000,1601.0000,1500.0000,1956.0000
221391.7720,2.0000,1953.0000,2000.0000,1866.0000,417.0000,-70.0000,64.0000,453.0000,-3139.0000,12011.0000,0.5871,0.1501,0.2694,-0.7485,111.6400,-11.8800,-77.5400,-5.0900,16.2300,10.9600,0.0000,0.0000,-0.0000,1035.0000,1601.0000,1500.0000,1956.0000
221408.5470,2.0000,1953.0000,2000.0000,1866.0000,264.0000,-65.0000,121.0000,687.0000,-2692.0000,13317.0000,0.5921,0.1749,0.2239,-0.7541,111.5200,-11.4500,-77.2800,-4.9400,16.9100,10.4100,0.0000,0.0000,-0.0000,1035.0000,1601.0000,1500.0000,1956.0000
221425.2930,2.0000,1953.0000,2000.0000,1866.0000,91.0000,-47.0000,170.0000,500.0000,-2488.0000,13435.0000,0.6058,0.1883,0.1955,-0.7479,111.4100,-11.0300,-77.0500,-4.9000,17.5400,9.7200,0.0000,0.0000,-0.0000,1035.0000,1601.0000,1500.0000,1956.0000
221441.7490,2.0000,1985.0000,1343.0000,1367.0000,-81.0000,-18.0000,208.0000,202.0000,-1950.0000,13142.0000,0.6272,0.1898,0.1874,-0.7317,111.3100,-10.6400,-76.8400,-4.9500,18.0700,8.9500,0.0000,0.0000,-0.0000,1916.0000,1437.0000,1500.0000,2000.0000
221458.5550,2.0000,2000.0000,1023.0000,1147.0000,-254.0000,34.0000,229.0000,-235.0000,-1249.0000,12186.0000,0.6550,0.1808,0.2000,-0.7060,111.2100,-10.2500,-76.6600,-4.9600,18.5300,8.1300,0.0000,0.0000,-0.0000,1916.0000,1437.0000,1500.0000,2000.0000
221475.1950,2.0000,2000.0000,1023.0000,1147.0000,-372.0000,82.0000,233.0000,-495.0000,-242.0000,9982.0000,0.6844,0.1624,0.2328,-0.6716,111.1100,-9.8600,-76.4900,-4.8000,18.9300,7.4200,0.0000,0.0000,-0.0000,1916.0000,1437.0000,1500.0000,2000.0000
221492.1810,2.0000,2000.0000,1023.0000,1147.0000,-375.0000,120.0000,219.0000,-288.0000,374.0000,6018.0000,0.7109,0.1411,0.2756,-0.6315,111.1100,-9.8600,-76.4900,-4.8000,18.9300,7.4200,0.0000,0.0000,-0.0000,1916.0000,1437.0000,1500.0000,2000.0000
221509.4740,2.0000,2000.0000,1023.0000,1147.0000,-264.0000,149.0000,187.0000,-265.0000,1027.0000,2550.0000,0.7300,0.1273,0.3166,-0.5922,111.0200,-9.4200,-76.3300,-4.4400,19.2000,7.0400,0.0000,0.0000,-0.0000,1916.0000,1437.0000,1500.0000,2000.0000
221526.2670,2.0000,2000.0000,1023.0000,1147.0000,-103.0000,150.0000,111.0000,-113.0000,2681.0000,-1285.0000,0.7380,0.1286,0.3464,-0.5646,110.9500,-8.9900,-76.1700,-4.0400,19.1800,7.0100,0.0000,0.0000,-0.0000,1916.0000,1437.0000,1500.0000,2000.0000
221543.3150,2.0000,2000.0000,1000.0000,1230.0000,102.0000,105.0000,24.0000,-280.0000,3423.0000,-5271.0000,0.7361,0.1436,0.3584,-0.5560,110.8900,-8.5800,-76.0200,-3.6000,18.8200,7.3400,0.0000,0.0000,-0.0000,1890.0000,1380.0000,1500.0000,2000.0000
221560.0400,2.0000,2000.0000,1000.0000,1230.0000,263.0000,77.0000,-47.0000,-878.0000,2799.0000,-7227.0000,0.7252,0.1710,0.3530,-0.5659,110.8400,-8.2100,-75.8500,-3.2900,18.2000,7.9300,0.0000,0.0000,-0.0000,1890.0000,1380.0000,1500.0000,2000.0000
221576.7080,2.0000,2000.0000,1000.0000,1230.0000,383.0000,15.0000,-112.0000,-1564.0000,2603.0000,-9048.0000,0.7063,0.2051,0.3334,-0.5898,110.7900,-7.8200,-75.6700,-3.1500,17.5400,8.4900,0.0000,0.0000,-0.0000,1890.0000,1380.0000,1500.0000,2000.0000
221593.7630,2.0000,2000.0000,1000.0000,1230.0000,467.0000,-35.0000,-157.0000,-1184.0000,2196.0000,-8464.0000,0.6799,0.2425,0.2979,-0.6246,110.7900,-7.8200,-75.6700,-3.1500,17.5400,8.4900,0.0000,0.0000,-0.0000,1890.0000,1380.0000,1500.0000,2000.0000
221610.4670,2.0000,2000.0000,1000.0000,1230.0000,502.0000,-71.0000,-180.0000,-996.0000,1186.0000,-5524.0000,0.6476,0.2772,0.2532,-0.6630,110.7400,-7.4000,-75.4700,-3.0500,17.0400,9.0600,0.0000,0.0000,-0.0000,1890.0000,1380.0000,1500.0000,2000.0000
221627.5040,2.0000,2000.0000,1000.0000,1230.0000,524.0000,-82.0000,-192.0000,-830.0000,498.0000,-1946.0000,0.6089,0.3113,0.2024,-0.7010,110.6900,-7.0100,-75.2500,-2.9100,16.8000,9.4800,0.0000,0.0000,-0.0000,1890.0000,1380.0000,1500.0000,2000.0000
221644.2590,2.0000,1997.0000,1726.0000,2000.0000,540.0000,-87.0000,-190.0000,-858.0000,-144.0000,865.0000,0.5657,0.3432,0.1481,-0.7350,110.6500,-6.6500,-75.0400,-2.8300,16.8600,9.7800,0.0000,0.0000,-0.0000,1066.0000,1291.0000,1500.0000,1998.0000
221660.7780,2.0000,1997.0000,1726.0000,2000.0000,545.0000,-55.0000,-173.0000,-723.0000,-884.0000,3274.0000,0.5196,0.3748,0.0935,-0.7621,110.6100,-6.3100,-74.8300,-2.9100,17.0600,9.9100,0.0000,0.0000,-0.0000,1066.0000,1291.0000,1500.0000,1998.0000
221677.5360,2.0000,1997.0000,1726.0000,2000.0000,512.0000,-34.0000,-145.0000,-370.0000,-1523.0000,5024.0000,0.4722,0.4071,0.0397,-0.7809,110.6100,-6.3100,-74.8300,-2.9100,17.0600,9.9100,0.0000,0.0000,-0.0000,1066.0000,1291.0000,1500.0000,1998.0000
221694.2950,2.0000,1997.0000,1726.0000,2000.0000,417.0000,-30.0000,-90.0000,52.0000,-2547.0000,5276.0000,0.4298,0.4345,-0.0090,-0.7914,110.5600,-5.9200,-74.6100,-3.2200,17.4800,9.9400,0.0000,0.0000,-0.0000,1066.0000,1291.0000,1500.0000,1998.0000
221710.8680,2.0000,1997.0000,1726.0000,2000.0000,252.0000,-60.0000,-16.0000,123.0000,-3082.0000,5502.0000,0.4028,0.4496,-0.0466,-0.7959,110.5000,-5.4700,-74.3800,-3.6900,18.0000,9.9900,0.0000,0.0000,-0.0000,1066.0000,1291.0000,1500.0000,1998.0000
221727.6100,2.0000,1997.0000,1726.0000,2000.0000,71.0000,-62.0000,47.0000,76.0000,-2847.0000,7932.0000,0.3942,0.4516,-0.0699,-0.7974,110.4300,-5.0400,-74.1500,-4.1900,18.3200,10.0900,0.0000,0.0000,-0.0000,1066.0000,1291.0000,1500.0000,1998.0000
221744.6770,2.0000,1997.0000,1726.0000,2000.0000,-111.0000,-53.0000,110.0000,-344.0000,-2296.0000,8677.0000,0.4051,0.4425,-0.0751,-0.7965,110.3500,-4.6400,-73.9400,-4.8000,18.5800,10.0400,0.0000,0.0000,-0.0000,1066.0000,1291.0000,1500.0000,1998.0000
221761.7350,2.0000,2000.0000,1345.0000,1549.0000,-269.0000,-61.0000,163.0000,-696.0000,-1826.0000,7840.0000,0.4341,0.4223,-0.0639,-0.7932,110.2600,-4.2600,-73.7400,-5.3500,18.7900,9.8500,0.0000,0.0000,-0.0000,1555.0000,1397.0000,1500.0000,2000.0000
221778.4740,2.0000,2000.0000,1345.0000,1549.0000,-380.0000,-63.0000,194.0000,-733.0000,-1241.0000,7071.0000,0.4747,0.3917,-0.0405,-0.7871,110.2600,-4.2600,-73.7400,-5.3500,18.7900,9.8500,0.0000,0.0000,-0.0000,1555.0000,1397.0000,1500.0000,2000.0000
221795.5030,2.0000,2000.0000,1345.0000,1549.0000,-440.0000,-60.0000,204.0000,-828.0000,-690.0000,6966.0000,0.5211,0.3533,-0.0081,-0.7769,110.1600,-3.8600,-73.5500,-5.7300,19.0300,9.6300,0.0000,0.0000,-0.0000,1555.0000,1397.0000,1500.0000,2000.0000
221812.2220,2.0000,2000.0000,1345.0000,1549.0000,-395.0000,-70.0000,189.0000,-719.0000,-132.0000,5560.0000,0.5646,0.3127,0.0260,-0.7634,110.0600,-3.4100,-73.3500,-5.9600,19.3700,9.3600,0.0000,0.0000,-0.0000,1555.0000,1397.0000,1500.0000,2000.0000
221829.1690,2.0000,2000.0000,1345.0000,1549.0000,-278.0000,-93.0000,151.0000,-570.0000,334.0000,5696.0000,0.5993,0.2755,0.0494,-0.7500,109.9500,-2.9700,-73.1700,-6.0100,19.6800,9.0900,0.0000,0.0000,-0.0000,1555.0000,1397.0000,1500.0000,2000.0000
221846.0580,2.0000,2000.0000,1000.0000,1202.0000,-189.0000,-116.0000,83.0000,-547.0000,1811.0000,6616.0000,0.6223,0.2443,0.0612,-0.7412,109.8400,-2.5500,-73.0000,-5.9300,19.9700,8.8000,0.0000,0.0000,-0.0000,1908.0000,1391.0000,1500.0000,2000.0000
221862.4960,2.0000,2000.0000,1000.0000,1201.0000,-146.0000,-137.0000,17.0000,-231.0000,1562.0000,9477.0000,0.6345,0.2152,0.0657,-0.7395,109.7500,-2.1400,-72.8400,-5.7200,20.3200,8.3400,0.0000,0.0000,-0.0000,1908.0000,1391.0000,1500.0000,2000.0000
221879.2440,2.0000,2000.0000,1000.0000,1201.0000,-79.0000,-120.0000,-30.0000,229.0000,460.0000,12196.0000,0.6388,0.1901,0.0663,-0.7425,109.7500,-2.1400,-72.8400,-5.7200,20.3200,8.3400,0.0000,0.0000,-0.0000,1908.0000,1391.0000,1500.0000,2000.0000
221896.3070,2.0000,2000.0000,1000.0000,1201.0000,59.0000,-96.0000,-81.0000,265.0000,291.0000,12917.0000,0.6342,0.1764,0.0593,-0.7504,109.6500,-1.6900,-72.6900,-5.7100,20.7900,7.5700,0.0000,0.0000,-0.0000,1908.0000,1391.0000,1500.0000,2000.0000
221912.9700,2.0000,2000.0000,1000.0000,1201.0000,207.0000,-67.0000,-129.0000,-71.0000,100.0000,13089.0000,0.6195,0.1792,0.0393,-0.7632,109.5400,-1.2000,-72.5500,-5.8900,21.2400,6.6400,0.0000,0.0000,-0.0000,1908.0000,1391.0000,1500.0000,2000.0000
221929.8030,2.0000,2000.0000,1000.0000,1201.0000,309.0000,-27.0000,-161.0000,-400.0000,-280.0000,11805.0000,0.5961,0.1969,0.0094,-0.7784,109.4300,-0.7300,-72.4400,-6.1000,21.5700,5.6700,0.0000,0.0000,-0.0000,1908.0000,1391.0000,1500.0000,2000.0000
221946.4100,2.0000,1998.0000,1661.0000,2000.0000,415.0000,4.0000,-176.0000,-659.0000,-180.0000,9076.0000,0.5660,0.2262,-0.0273,-0.7923,109.3200,-0.2800,-72.3500,-6.3600,21.7200,4.8600,0.0000,0.0000,-0.0000,1060.0000,1287.0000,1500.0000,1999.0000
221963.3000,2.0000,1998.0000,1728.0000,2000.0000,481.0000,18.0000,-187.0000,-664.0000,-197.0000,6660.0000,0.5286,0.2654,-0.0729,-0.8030,109.2100,0.1500,-72.2900,-6.5700,21.7000,4.3500,0.0000,0.0000,-0.0000,1060.0000,1287.0000,1500.0000,1999.0000
221980.1950,2.0000,1998.0000,1728.0000,2000.0000,526.0000,37.0000,-188.0000,-639.0000,-446.0000,4680.0000,0.4856,0.3094,-0.1229,-0.8083,109.2100,0.1500,-72.2900,-6.5700,21.7000,4.3500,0.0000,0.0000,-0.0000,1060.0000,1287.0000,1500.0000,1999.0000
221997.2520,2.0000,1998.0000,1728.0000,2000.0000,510.0000,50.0000,-172.0000,-338.0000,-1079.0000,3060.0000,0.4390,0.3550,-0.1741,-0.8068,109.0800,0.6200,-72.2100,-6.8800,21.6200,4.1400,0.0000,0.0000,-0.0000,1060.0000,1287.0000,1500.0000,1999.0000
222014.1750,2.0000,1998.0000,1728.0000,2000.0000,408.0000,55.0000,-140.0000,-91.0000,-1213.0000,1626.0000,0.3968,0.3949,-0.2162,-0.7999,108.9300,1.1100,-72.1300,-7.2300,21.4900,4.1800,0.0000,0.0000,-0.0000,1060.0000,1287.0000,1500.0000,1999.0000
222031.0450,2.0000,1998.0000,1728.0000,2000.0000,250.0000,37.0000,-86.0000,42.0000,-1767.0000,281.0000,0.3650,0.4221,-0.2451,-0.7928,108.7800,1.5700,-72.0400,-7.4500,21.3400,4.4000,0.0000,0.0000,-0.0000,1060.0000,1287.0000,1500.0000,1999.0000
222047.9010,2.0000,1999.0000,1818.0000,2000.0000,35.0000,-5.0000,-8.0000,-346.0000,-2427.0000,-254.0000,0.3519,0.4331,-0.2572,-0.7890,108.6400,2.0000,-71.9600,-7.5500,21.1400,4.7400,0.0000,0.0000,-0.0000,1073.0000,1390.0000,1500.0000,2000.0000
222064.7240,2.0000,2000.0000,1818.0000,2000.0000,-127.0000,-25.0000,56.0000,-545.0000,-2060.0000,904.0000,0.3580,0.4275,-0.2536,-0.7904,108.5100,2.4000,-71.8700,-7.6100,20.8900,5.1000,0.0000,0.0000,-0.0000,1073.0000,1390.0000,1500.0000,2000.0000
222081.5560,2.0000,2000.0000,1818.0000,2000.0000,-251.0000,-30.0000,105.0000,-774.0000,-1752.0000,2148.0000,0.3787,0.4110,-0.2373,-0.7946,108.5100,2.4000,-71.8700,-7.6100,20.8900,5.1000,0.0000,0.0000,-0.0000,1073.0000,1390.0000,1500.0000,2000.0000
222098.3730,2.0000,2000.0000,1818.0000,2000.0000,-347.0000,-29.0000,150.0000,-590.0000,-1507.0000,2326.0000,0.4105,0.3859,-0.2111,-0.7988,108.3400,2.8400,-71.7400,-7.9800,20.6800,5.3400,0.0000,0.0000,-0.0000,1073.0000,1390.0000,1500.0000,2000.0000
222115.2400,2.0000,2000.0000,1818.0000,2000.0000,-442.0000,-27.0000,180.0000,-309.0000,-782.0000,2376.0000,0.4512,0.3525,-0.1749,-0.8010,108.1400,3.3000,-71.6000,-8.4800,20.5200,5.5300,0.0000,0.0000,-0.0000,1073.0000,1390.0000,1500.0000,2000.0000
222132.0160,2.0000,2000.0000,1818.0000,2000.0000,-493.0000,-14.0000,191.0000,-338.0000,-252.0000,3149.0000,0.4959,0.3130,-0.1297,-0.7996,107.9500,3.7300,-71.4500,-8.8900,20.4400,5.6400,0.0000,0.0000,-0.0000,1073.0000,1390.0000,1500.0000,2000.0000
222149.0030,2.0000,1977.0000,1421.0000,1991.0000,-512.0000,4.0000,183.0000,-677.0000,201.0000,4639.0000,0.5403,0.2705,-0.0783,-0.7930,107.7600,4.1300,-71.3200,-9.2100,20.4100,5.6100,0.0000,0.0000,-0.0000,1293.0000,1214.0000,1500.0000,1979.0000
222165.7420,2.0000,1977.0000,1420.0000,1992.0000,-522.0000,23.0000,165.0000,-918.0000,624.0000,5702.0000,0.5796,0.2283,-0.0240,-0.7819,107.5700,4.5200,-71.2000,-9.4700,20.4000,5.3800,0.0000,0.0000,-0.0000,1293.0000,1214.0000,1500.0000,1979.0000
222182.7880,2.0000,1977.0000,1420.0000,1992.0000,-511.0000,19.0000,122.0000,-866.0000,1530.0000,5351.0000,0.6126,0.1850,0.0332,-0.7677,107.5700,4.5200,-71.2000,-9.4700,20.4000,5.3800,0.0000,0.0000,-0.0000,1293.0000,1214.0000,1500.0000,1979.0000
222199.3400,2.0000,1977.0000,1420.0000,1992.0000,-463.0000,-43.0000,62.0000,-733.0000,2306.0000,4297.0000,0.6341,0.1408,0.0836,-0.7557,107.3600,4.9400,-71.0700,-9.6300,20.5500,5.0600,0.0000,0.0000,-0.0000,1293.0000,1214.0000,1500.0000,1979.0000
222215.9960,2.0000,1977.0000,1420.0000,1992.0000,-411.0000,-73.0000,20.0000,-403.0000,1571.0000,6188.0000,0.6466,0.0942,0.1250,-0.7466,107.1400,5.4000,-70.9300,-9.6000,20.7400,4.8500,0.0000,0.0000,-0.0000,1293.0000,1214.0000,1500.0000,1979.0000
222232.5910,2.0000,1992.0000,1469.0000,2000.0000,-372.0000,-92.0000,-20.0000,-216.0000,1084.0000,8974.0000,0.6526,0.0483,0.1590,-0.7393,106.9300,5.8300,-70.8000,-9.5500,20.9600,4.5100,0.0000,0.0000,-0.0000,1070.0000,1060.0000,1500.0000,2000.0000
222249.6650,2.0000,2000.0000,1490.0000,2000.0000,-330.0000,-104.0000,-61.0000,-33.0000,802.0000,11571.0000,0.6523,0.0021,0.1881,-0.7343,106.7400,6.2500,-70.7000,-9.4200,21.2400,3.9100,0.0000,0.0000,-0.0000,1070.0000,1060.0000,1500.0000,2000.0000
222266.2380,2.0000,2000.0000,1490.0000,2000.0000,-302.0000,-106.0000,-90.0000,127.0000,134.0000,13358.0000,0.6467,-0.0411,0.2113,-0.7318,106.5500,6.6600,-70.6100,-9.1700,21.5400,3.0700,0.0000,0.0000,-0.0000,1070.0000,1060.0000,1500.0000,2000.0000
222283.3480,2.0000,2000.0000,1490.0000,2000.0000,-274.0000,-86.0000,-106.0000,432.0000,-447.0000,14357.0000,0.6366,-0.0828,0.2323,-0.7307,106.5500,6.6600,-70.6100,-9.1700,21.5400,3.0700,0.0000,0.0000,-0.0000,1070.0000,1060.0000,1500.0000,2000.0000
222300.3760,2.0000,2000.0000,1490.0000,2000.0000,-258.0000,-64.0000,-108.0000,588.0000,-855.0000,14476.0000,0.6235,-0.1196,0.2525,-0.7302,106.3500,7.1200,-70.5100,-8.8700,21.8800,2.1200,0.0000,0.0000,-0.0000,1070.0000,1060.0000,1500.0000,2000.0000
222316.9430,2.0000,2000.0000,1490.0000,2000.0000,-241.0000,-44.0000,-99.0000,518.0000,-1390.0000,13544.0000,0.6097,-0.1515,0.2721,-0.7288,106.1400,7.6000,-70.4200,-8.5100,22.2100,1.1700,0.0000,0.0000,-0.0000,1070.0000,1060.0000,1500.0000,2000.0000
222333.7670,2.0000,2000.0000,1490.0000,2000.0000,-223.0000,-27.0000,-81.0000,346.0000,-1519.0000,12013.0000,0.5964,-0.1795,0.2913,-0.7261,105.9500,8.0700,-70.3500,-8.1500,22.4500,0.3000,0.0000,0.0000,-0.0000,1070.0000,1060.0000,1500.0000,2000.0000
222350.2100,2.0000,2000.0000,1212.0000,2000.0000,-206.0000,-32.0000,-62.0000,141.0000,-1350.0000,9816.0000,0.5851,-0.2040,0.3088,-0.7216,105.7800,8.5200,-70.3200,-7.8200,22.5900,-0.3500,0.0000,0.0000,-0.0000,1372.0000,1085.0000,1500.0000,2000.0000
222366.8900,2.0000,2000.0000,1212.0000,2000.0000,-199.0000,-55.0000,-35.0000,-150.0000,-1569.0000,8013.0000,0.5762,-0.2280,0.3249,-0.7144,105.7800,8.5200,-70.3200,-7.8200,22.5900,-0.3500,0.0000,0.0000,-0.0000,1372.0000,1085.0000,1500.0000,2000.0000
222383.8320,2.0000,2000.0000,1212.0000,2000.0000,-169.0000,-98.0000,-8.0000,-441.0000,-1997.0000,6819.0000,0.5717,-0.2529,0.3370,-0.7040,105.6200,8.9500,-70.3000,-7.5900,22.6300,-0.8000,0.0000,0.0000,-0.0000,1372.0000,1085.0000,1500.0000,2000.0000
222400.7830,2.0000,2000.0000,1212.0000,2000.0000,-130.0000,-163.0000,15.0000,-620.0000,-1931.0000,6998.0000,0.5727,-0.2786,0.3415,-0.6912,105.4300,9.4200,-70.2900,-7.5400,22.5700,-1.1400,0.0000,0.0000,-0.0000,1372.0000,1085.0000,1500.0000,2000.0000
222417.6960,2.0000,2000.0000,1212.0000,2000.0000,-103.0000,-206.0000,29.0000,-286.0000,-1690.0000,9075.0000,0.5793,-0.3061,0.3383,-0.6755,105.2500,9.8900,-70.3000,-7.4600,22.4700,-1.4500,0.0000,0.0000,-0.0000,1372.0000,1085.0000,1500.0000,2000.0000
222434.3160,2.0000,2000.0000,1212.0000,2000.0000,-80.0000,-234.0000,42.0000,173.0000,-1793.0000,12063.0000,0.5892,-0.3336,0.3301,-0.6578,105.0800,10.3400,-70.3100,-7.1600,22.3800,-1.8700,0.0000,0.0000,-0.0000,1372.0000,1085.0000,1500.0000,2000.0000
222451.1950,2.0000,2000.0000,1440.0000,2000.0000,-57.0000,-246.0000,50.0000,581.0000,-1982.0000,14381.0000,0.6015,-0.3599,0.3179,-0.6384,104.9100,10.7800,-70.3500,-6.5800,22.2700,-2.4700,0.0000,0.0000,-0.0000,1129.0000,1069.0000,1500.0000,2000.0000
222467.6320,2.0000,2000.0000,1440.0000,2000.0000,-54.0000,-248.0000,61.0000,968.0000,-1934.0000,16129.0000,0.6146,-0.3847,0.3041,-0.6178,104.9100,10.7800,-70.3500,-6.5800,22.2700,-2.4700,0.0000,0.0000,-0.0000,1129.0000,1069.0000,1500.0000,2000.0000
222484.4080,2.0000,2000.0000,1440.0000,2000.0000,-73.0000,-234.0000,70.0000,1321.0000,-1941.0000,18133.0000,0.6273,-0.4092,0.2913,-0.5952,104.7700,11.1900,-70.4100,-5.8500,22.0800,-3.1700,0.0000,0.0000,-0.0000,1129.0000,1069.0000,1500.0000,2000.0000
222501.3080,2.0000,2000.0000,1440.0000,2000.0000,-103.0000,-197.0000,78.0000,1535.0000,-1866.0000,19560.0000,0.6370,-0.4325,0.2835,-0.5716,104.6200,11.6300,-70.4900,-5.0200,21.8300,-3.9500,0.0000,0.0000,-0.0000,1129.0000,1069.0000,1500.0000,2000.0000
222518.2310,2.0000,2000.0000,1440.0000,2000.0000,-130.0000,-159.0000,85.0000,1579.0000,-1672.0000,19251.0000,0.6431,-0.4549,0.2821,-0.5476,104.4800,12.0800,-70.6000,-4.0600,21.4800,-4.7800,0.0000,0.0000,-0.0000,1129.0000,1069.0000,1500.0000,2000.0000
222535.0560,2.0000,2000.0000,1440.0000,2000.0000,-145.0000,-125.0000,85.0000,1527.0000,-1524.0000,18061.0000,0.6459,-0.4756,0.2857,-0.5244,104.3700,12.5000,-70.7200,-3.1000,21.0500,-5.4900,0.0000,0.0000,-0.0000,1129.0000,1069.0000,1500.0000,2000.0000
222552.1350,2.0000,2000.0000,1000.0000,1488.0000,-159.0000,-101.0000,84.0000,1372.0000,-1223.0000,16276.0000,0.6458,-0.4952,0.2930,-0.5019,104.2900,12.9000,-70.8500,-2.2300,20.6000,-6.0300,0.0000,0.0000,-0.0000,1887.0000,1126.0000,1500.0000,2000.0000
222568.9220,2.0000,2000.0000,1000.0000,1488.0000,-165.0000,-93.0000,79.0000,1170.0000,-968.0000,14824.0000,0.6436,-0.5139,0.3021,-0.4801,104.2900,12.9000,-70.8500,-2.2300,20.6000,-6.0300,0.0000,0.0000,-0.0000,1887.0000,1126.0000,1500.0000,2000.0000
222586.1610,2.0000,2000.0000,1000.0000,1488.0000,-130.0000,-87.0000,63.0000,1087.0000,-891.0000,14018.0000,0.6410,-0.5314,0.3096,-0.4592,104.2200,13.2800,-70.9800,-1.5100,20.1600,-6.3800,0.0000,0.0000,-0.0000,1887.0000,1126.0000,1500.0000,2000.0000
222603.2330,2.0000,2000.0000,1000.0000,1488.0000,-65.0000,-89.0000,38.0000,937.0000,-851.0000,12980.0000,0.6403,-0.5441,0.3123,-0.4433,104.1600,13.6800,-71.1300,-0.7700,19.7700,-6.6100,0.0000,0.0000,-0.0000,1887.0000,1126.0000,1500.0000,2000.0000
222620.2830,2.0000,2000.0000,1000.0000,1488.0000,4.0000,-93.0000,10.0000,778.0000,-805.0000,12048.0000,0.6433,-0.5515,0.3078,-0.4328,104.1100,14.0800,-71.2800,-0.1100,19.4000,-6.7500,0.0000,0.0000,-0.0000,1887.0000,1126.0000,1500.0000,2000.0000
222637.2260,2.0000,2000.0000,1000.0000,1529.0000,57.0000,-102.0000,-17.0000,572.0000,-502.0000,11173.0000,0.6497,-0.5548,0.2963,-0.4269,104.0800,14.4700,-71.4300,0.3800,19.0300,-6.8400,0.0000,0.0000,-0.0000,1831.0000,1123.0000,1500.0000,2000.0000
222654.2950,2.0000,2000.0000,1000.0000,1547.0000,106.0000,-109.0000,-41.0000,535.0000,-540.0000,10398.0000,0.6587,-0.5547,0.2788,-0.4252,104.0500,14.8400,-71.5900,0.7700,18.6700,-6.8900,0.0000,0.0000,-0.0000,1831.0000,1123.0000,1500.0000,2000.0000
222671.0610,2.0000,2000.0000,1000.0000,1547.0000,141.0000,-115.0000,-60.0000,459.0000,-572.0000,9330.0000,0.6697,-0.5513,0.2563,-0.4266,104.0500,14.8400,-71.5900,0.7700,18.6700,-6.8900,0.0000,0.0000,-0.0000,1831.0000,1123.0000,1500.0000,2000.0000
222688.1810,2.0000,2000.0000,1000.0000,1547.0000,167.0000,-126.0000,-73.0000,445.0000,-755.0000,9333.0000,0.6820,-0.5457,0.2291,-0.4296,104.0300,15.1900,-71.7400,1.0200,18.3200,-6.9600,0.0000,0.0000,-0.0000,1831.0000,1123.0000,1500.0000,2000.0000
222705.2570,2.0000,2000.0000,1000.0000,1547.0000,179.0000,-135.0000,-80.0000,514.0000,-991.0000,9315.0000,0.6950,-0.5388,0.1985,-0.4327,104.0200,15.5600,-71.9100,1.4300,17.9800,-7.0700,0.0000,0.0000,-0.0000,1831.0000,1123.0000,1500.0000,2000.0000
222721.9000,2.0000,2000.0000,1000.0000,1547.0000,179.0000,-137.0000,-81.0000,592.0000,-1096.0000,10019.0000,0.7071,-0.5313,0.1673,-0.4357,104.0200,15.9300,-72.0800,1.8400,17.6300,-7.2400,0.0000,0.0000,-0.0000,1831.0000,1123.0000,1500.0000,2000.0000
222738.5010,2.0000,2000.0000,1000.0000,1547.0000,174.0000,-134.0000,-76.0000,693.0000,-1364.0000,10589.0000,0.7182,-0.5234,0.1364,-0.4377,104.0200,16.2900,-72.2500,2.2200,17.2200,-7.5000,0.0000,0.0000,-0.0000,1831.0000,1123.0000,1500.0000,2000.0000
222755.3630,2.0000,1998.0000,1468.0000,2000.0000,178.0000,-130.0000,-69.0000,754.0000,-1619.0000,10835.0000,0.7289,-0.5144,0.1059,-0.4392,104.0300,16.6200,-72.4300,2.5500,16.7600,-7.8600,0.0000,0.0000,-0.0000,1065.0000,1034.0000,1500.0000,1999.0000
222772.3010,2.0000,1998.0000,1469.0000,2000.0000,180.0000,-128.0000,-59.0000,861.0000,-1658.0000,11023.0000,0.7396,-0.5041,0.0756,-0.4395,104.0300,16.6200,-72.4300,2.5500,16.7600,-7.8600,0.0000,0.0000,-0.0000,1065.0000,1034.0000,1500.0000,1999.0000
222789.1900,2.0000,1998.0000,1469.0000,2000.0000,170.0000,-128.0000,-42.0000,922.0000,-1612.0000,11406.0000,0.7504,-0.4932,0.0464,-0.4377,104.0400,16.9400,-72.6200,2.8000,16.3000,-8.2800,0.0000,0.0000,-0.0000,1065.0000,1034.0000,1500.0000,1999.0000
222805.9960,2.0000,1998.0000,1469.0000,2000.0000,127.0000,-132.0000,-18.0000,1005.0000,-1834.0000,11399.0000,0.7599,-0.4848,0.0201,-0.4326,104.0800,17.2800,-72.8200,3.2300,15.8400,-8.7600,0.0000,0.0000,-0.0000,1065.0000,1034.0000,1500.0000,1999.0000
222822.7230,2.0000,1998.0000,1469.0000,2000.0000,49.0000,-138.0000,9.0000,1052.0000,-1957.0000,11502.0000,0.7659,-0.4834,-0.0007,-0.4239,104.1200,17.6200,-73.0400,3.6400,15.3800,-9.3000,0.0000,0.0000,-0.0000,1065.0000,1034.0000,1500.0000,1999.0000
222839.7870,2.0000,1998.0000,1469.0000,2000.0000,-32.0000,-140.0000,38.0000,1067.0000,-1935.0000,11968.0000,0.7676,-0.4912,-0.0152,-0.4114,104.1800,17.9300,-73.2600,3.9600,14.9000,-9.8600,0.0000,0.0000,-0.0000,1065.0000,1034.0000,1500.0000,1999.0000
222856.7390,2.0000,2000.0000,1026.0000,1844.0000,-85.0000,-136.0000,61.0000,1086.0000,-1655.0000,12082.0000,0.7655,-0.5066,-0.0234,-0.3959,104.2400,18.2300,-73.4900,4.2600,14.3500,-10.4100,0.0000,0.0000,-0.0000,1567.0000,1091.0000,1500.0000,2000.0000
222873.4650,2.0000,2000.0000,1026.0000,1844.0000,-110.0000,-139.0000,74.0000,1017.0000,-1529.0000,11839.0000,0.7610,-0.5261,-0.0277,-0.3787,104.2400,18.2300,-73.4900,4.2600,14.3500,-10.4100,0.0000,0.0000,-0.0000,1567.0000,1091.0000,1500.0000,2000.0000
222890.3780,2.0000,2000.0000,1026.0000,1844.0000,-97.0000,-155.0000,77.0000,972.0000,-1458.0000,11238.0000,0.7560,-0.5463,-0.0322,-0.3591,104.3000,18.5100,-73.7300,4.5600,13.7500,-10.9100,0.0000,0.0000,-0.0000,1567.0000,1091.0000,1500.0000,2000.0000
222907.3510,2.0000,2000.0000,1026.0000,1844.0000,-75.0000,-167.0000,71.0000,949.0000,-1289.0000,11233.0000,0.7520,-0.5646,-0.0399,-0.3377,104.3900,18.8100,-73.9800,5.0200,13.1700,-11.3100,0.0000,0.0000,-0.0000,1567.0000,1091.0000,1500.0000,2000.0000
222924.2490,2.0000,2000.0000,1026.0000,1844.0000,-51.0000,-181.0000,58.0000,940.0000,-925.0000,11530.0000,0.7486,-0.5804,-0.0504,-0.3165,104.4900,19.0900,-74.2300,5.4800,12.5600,-11.6400,0.0000,0.0000,-0.0000,1567.0000,1091.0000,1500.0000,2000.0000
222941.1410,2.0000,2000.0000,1285.0000,1979.0000,-26.0000,-189.0000,41.0000,1012.0000,-681.0000,12048.0000,0.7461,-0.5933,-0.0650,-0.2953,104.6000,19.3600,-74.4900,5.9100,11.9200,-11.9000,0.0000,0.0000,-0.0000,1366.0000,1153.0000,1500.0000,2000.0000
222958.0910,2.0000,2000.0000,1286.0000,1980.0000,-20.0000,-186.0000,25.0000,1138.0000,-736.0000,12488.0000,0.7435,-0.6039,-0.0818,-0.2753,104.7100,19.6100,-74.7600,6.3100,11.2100,-12.1200,0.0000,0.0000,-0.0000,1366.0000,1153.0000,1500.0000,2000.0000
222974.9900,2.0000,2000.0000,1286.0000,1980.0000,-34.0000,-180.0000,17.0000,1372.0000,-760.0000,13209.0000,0.7396,-0.6141,-0.0991,-0.2570,104.8300,19.8400,-75.0300,6.6600,10.4400,-12.3200,0.0000,0.0000,-0.0000,1366.0000,1153.0000,1500.0000,2000.0000
222992.0100,2.0000,2000.0000,1286.0000,1980.0000,-73.0000,-163.0000,14.0000,1519.0000,-981.0000,13779.0000,0.7325,-0.6265,-0.1146,-0.2404,104.8300,19.8400,-75.0300,6.6600,10.4400,-12.3200,0.0000,0.0000,-0.0000,1366.0000,1153.0000,1500.0000,2000.0000
223008.9540,2.0000,2000.0000,1286.0000,1980.0000,-100.0000,-144.0000,14.0000,1570.0000,-1063.0000,13862.0000,0.7219,-0.6416,-0.1266,-0.2263,104.9800,20.0700,-75.3100,7.1000,9.5000,-12.5200,0.0000,0.0000,-0.0000,1366.0000,1153.0000,1500.0000,2000.0000
223025.7780,2.0000,2000.0000,1286.0000,1980.0000,-117.0000,-130.0000,14.0000,1573.0000,-1034.0000,13537.0000,0.7091,-0.6580,-0.1360,-0.2140,105.1300,20.2900,-75.5900,7.5000,8.5400,-12.6700,0.0000,0.0000,-0.0000,1366.0000,1153.0000,1500.0000,2000.0000
223042.7470,2.0000,2000.0000,1067.0000,1045.0000,-119.0000,-120.0000,12.0000,1567.0000,-1021.0000,13209.0000,0.6952,-0.6744,-0.1440,-0.2029,105.2900,20.4700,-75.8700,7.8500,7.6300,-12.7500,0.0000,0.0000,-0.0000,1946.0000,1514.0000,1500.0000,2000.0000
223059.5350,2.0000,2000.0000,1067.0000,1043.0000,-102.0000,-115.0000,12.0000,1480.0000,-1124.0000,12652.0000,0.6818,-0.6893,-0.1511,-0.1927,105.4500,20.6400,-76.1600,8.1500,6.7700,-12.7500,0.0000,0.0000,-0.0000,1946.0000,1514.0000,1500.0000,2000.0000
223076.3300,2.0000,2000.0000,1067.0000,1043.0000,-66.0000,-105.0000,14.0000,1410.0000,-1343.0000,11834.0000,0.6710,-0.7011,-0.1580,-0.1824,105.6100,20.7900,-76.4400,8.4000,5.9900,-12.7000,0.0000,0.0000,-0.0000,1946.0000,1514.0000,1500.0000,2000.0000
223093.4460,2.0000,2000.0000,1067.0000,1043.0000,-13.0000,-100.0000,10.0000,1341.0000,-1232.0000,10911.0000,0.6646,-0.7081,-0.1656,-0.1717,105.6100,20.7900,-76.4400,8.4000,5.9900,-12.7000,0.0000,0.0000,-0.0000,1946.0000,1514.0000,1500.0000,2000.0000
223110.4840,2.0000,2000.0000,1067.0000,1043.0000,41.0000,-92.0000,5.0000,1303.0000,-1018.0000,10129.0000,0.6641,-0.7090,-0.1743,-0.1608,105.8000,20.9400,-76.7300,8.7200,5.2500,-12.6100,0.0000,0.0000,-0.0000,1946.0000,1514.0000,1500.0000,2000.0000
223127.3500,2.0000,2000.0000,1067.0000,1043.0000,91.0000,-74.0000,2.0000,1310.0000,-1099.0000,9280.0000,0.6687,-0.7047,-0.1833,-0.1505,106.0000,21.0700,-77.0100,9.0500,4.6400,-12.4900,0.0000,0.0000,-0.0000,1946.0000,1514.0000,1500.0000,2000.0000
223144.3840,2.0000,2000.0000,2000.0000,1602.0000,170.0000,-33.0000,2.0000,1128.0000,-1077.0000,8455.0000,0.6805,-0.6932,-0.1909,-0.1413,106.2000,21.2000,-77.2900,9.3400,4.1700,-12.3800,0.0000,0.0000,-0.0000,1124.0000,1773.0000,1500.0000,2000.0000
223161.2700,2.0000,2000.0000,2000.0000,1604.0000,274.0000,10.0000,-1.0000,887.0000,-855.0000,7230.0000,0.7028,-0.6705,-0.1959,-0.1344,106.4000,21.3200,-77.5800,9.5800,3.8500,-12.2900,0.0000,0.0000,-0.0000,1124.0000,1773.0000,1500.0000,2000.0000
223178.0530,2.0000,2000.0000,2000.0000,1604.0000,338.0000,48.0000,0.0000,817.0000,-668.0000,5273.0000,0.7336,-0.6371,-0.1983,-0.1287,106.6100,21.4300,-77.8600,9.8000,3.7500,-12.2200,0.0000,0.0000,-0.0000,1124.0000,1773.0000,1500.0000,2000.0000
223195.1190,2.0000,2000.0000,2000.0000,1604.0000,321.0000,74.0000,-5.0000,912.0000,-24.0000,2959.0000,0.7663,-0.5984,-0.1978,-0.1248,106.6100,21.4300,-77.8600,9.8000,3.7500,-12.2200,0.0000,0.0000,-0.0000,1124.0000,1773.0000,1500.0000,2000.0000
223211.9140,2.0000,2000.0000,2000.0000,1604.0000,230.0000,88.0000,-5.0000,836.0000,357.0000,629.0000,0.7923,-0.5649,-0.1939,-0.1247,106.8500,21.5600,-78.1500,10.2400,3.7900,-12.1400,0.0000,0.0000,-0.0000,1124.0000,1773.0000,1500.0000,2000.0000
223228.8930,2.0000,2000.0000,2000.0000,1604.0000,112.0000,100.0000,5.0000,875.0000,-229.0000,-317.0000,0.8089,-0.5430,-0.1855,-0.1282,107.1100,21.7000,-78.4500,10.7900,4.0800,-11.9800,0.0000,0.0000,-0.0000,1124.0000,1773.0000,1500.0000,2000.0000
223245.8390,2.0000,2000.0000,2000.0000,1604.0000,-6.0000,117.0000,18.0000,559.0000,-334.0000,-711.0000,0.8163,-0.5348,-0.1720,-0.1345,107.3800,21.8500,-78.7400,11.3600,4.5400,-11.8000,0.0000,0.0000,-0.0000,1124.0000,1773.0000,1500.0000,2000.0000
223262.7250,2.0000,2000.0000,1984.0000,1888.0000,-113.0000,150.0000,34.0000,951.0000,-315.0000,-1341.0000,0.8149,-0.5405,-0.1521,-0.1438,107.6500,22.0200,-79.0400,11.9000,5.0500,-11.6100,0.0000,0.0000,-0.0000,1064.0000,1550.0000,1500.0000,2000.0000
223279.4340,2.0000,2000.0000,1984.0000,1888.0000,-190.0000,182.0000,47.0000,935.0000,-383.0000,-3725.0000,0.8069,-0.5559,-0.1250,-0.1558,107.9200,22.1800,-79.3400,12.4200,5.6300,-11.4000,0.0000,0.0000,-0.0000,1064.0000,1550.0000,1500.0000,2000.0000
223296.6830,2.0000,2000.0000,1984.0000,1888.0000,-256.0000,166.0000,56.0000,712.0000,29.0000,-7216.0000,0.7920,-0.5793,-0.0941,-0.1678,107.9200,22.1800,-79.3400,12.4200,5.6300,-11.4000,0.0000,0.0000,-0.0000,1064.0000,1550.0000,1500.0000,2000.0000
223313.5590,2.0000,2000.0000,1984.0000,1888.0000,-321.0000,123.0000,59.0000,681.0000,274.0000,-8375.0000,0.7699,-0.6098,-0.0659,-0.1761,108.1900,22.3600,-79.6300,12.9200,6.5100,-11.0500,0.0000,0.0000,-0.0000,1064.0000,1550.0000,1500.0000,2000.0000
223330.4850,2.0000,2000.0000,1984.0000,1888.0000,-396.0000,69.0000,56.0000,776.0000,872.0000,-8106.0000,0.7389,-0.6479,-0.0408,-0.1806,108.4400,22.5600,-79.9200,13.3000,7.5100,-10.6200,0.0000,0.0000,-0.0000,1064.0000,1550.0000,1500.0000,2000.0000
223347.3460,2.0000,2000.0000,1390.0000,1268.0000,-446.0000,26.0000,47.0000,509.0000,661.0000,-6546.0000,0.6991,-0.6915,-0.0204,-0.1805,108.7000,22.7500,-80.1900,13.5700,8.3700,-10.2400,0.0000,0.0000,-0.0000,1941.0000,1569.0000,1500.0000,2000.0000
223364.3180,2.0000,2000.0000,1127.0000,1000.0000,-469.0000,2.0000,37.0000,408.0000,765.0000,-4720.0000,0.6522,-0.7370,-0.0038,-0.1772,108.9400,22.9500,-80.4400,13.7500,8.9600,-9.9600,0.0000,0.0000,-0.0000,1941.0000,1569.0000,1500.0000,2000.0000
223381.2280,2.0000,2000.0000,1127.0000,1000.0000,-484.0000,-11.0000,24.0000,324.0000,772.0000,-2720.0000,0.5996,-0.7815,0.0099,-0.1723,109.1700,23.1400,-80.6900,13.9100,9.2700,-9.7400,0.0000,0.0000,-0.0000,1941.0000,1569.0000,1500.0000,2000.0000
223398.4670,2.0000,2000.0000,1127.0000,1000.0000,-465.0000,-3.0000,7.0000,906.0000,627.0000,-703.0000,0.5423,-0.8229,0.0225,-0.1683,109.1700,23.1400,-80.6900,13.9100,9.2700,-9.7400,0.0000,0.0000,-0.0000,1941.0000,1569.0000,1500.0000,2000.0000
223415.3380,2.0000,2000.0000,1127.0000,1000.0000,-406.0000,5.0000,-17.0000,1080.0000,290.0000,244.0000,0.4879,-0.8563,0.0316,-0.1663,109.3900,23.3300,-80.9300,14.1100,9.3500,-9.5300,0.0000,0.0000,-0.0000,1941.0000,1569.0000,1500.0000,2000.0000
223432.1610,2.0000,2000.0000,1000.0000,1597.0000,-305.0000,27.0000,-41.0000,1058.0000,155.0000,596.0000,0.4421,-0.8804,0.0365,-0.1678,109.6000,23.5100,-81.1600,14.3500,9.2700,-9.3100,0.0000,0.0000,-0.0000,1773.0000,1129.0000,1500.0000,2000.0000
223448.9080,2.0000,2000.0000,1000.0000,1599.0000,-161.0000,41.0000,-68.0000,854.0000,275.0000,116.0000,0.4107,-0.8943,0.0360,-0.1740,109.8200,23.6800,-81.3700,14.5600,9.1500,-9.0800,0.0000,0.0000,-0.0000,1773.0000,1129.0000,1500.0000,2000.0000
223465.9060,2.0000,2000.0000,1000.0000,1599.0000,36.0000,50.0000,-93.0000,619.0000,-41.0000,-543.0000,0.4010,-0.8969,0.0281,-0.1842,110.0200,23.8300,-81.5800,14.7000,9.0700,-8.8800,0.0000,0.0000,-0.0000,1773.0000,1129.0000,1500.0000,2000.0000
223483.1890,2.0000,2000.0000,1000.0000,1599.0000,165.0000,57.0000,-116.0000,521.0000,-13.0000,-1744.0000,0.4126,-0.8891,0.0128,-0.1979,110.2300,23.9800,-81.7800,14.7600,9.0400,-8.7400,0.0000,0.0000,-0.0000,1773.0000,1129.0000,1500.0000,2000.0000
223500.0770,2.0000,2000.0000,1000.0000,1599.0000,228.0000,33.0000,-129.0000,727.0000,-177.0000,-3161.0000,0.4351,-0.8752,-0.0073,-0.2112,110.2300,23.9800,-81.7800,14.7600,9.0400,-8.7400,0.0000,0.0000,-0.0000,1773.0000,1129.0000,1500.0000,2000.0000
223517.1390,2.0000,2000.0000,1000.0000,1599.0000,231.0000,-10.0000,-136.0000,897.0000,-446.0000,-3979.0000,0.4612,-0.8587,-0.0313,-0.2211,110.4200,24.1200,-81.9800,14.7500,9.1100,-8.6900,0.0000,0.0000,-0.0000,1773.0000,1129.0000,1500.0000,2000.0000
223533.7420,2.0000,2000.0000,1000.0000,1599.0000,203.0000,-57.0000,-133.0000,842.0000,-623.0000,-3380.0000,0.4832,-0.8442,-0.0575,-0.2249,110.6100,24.2600,-82.1700,14.7100,9.2700,-8.7300,0.0000,0.0000,-0.0000,1773.0000,1129.0000,1500.0000,2000.0000
223550.8340,2.0000,2000.0000,1581.0000,2000.0000,192.0000,-102.0000,-124.0000,553.0000,-1022.0000,-2056.0000,0.5025,-0.8311,-0.0860,-0.2223,110.8000,24.4000,-82.3600,14.6700,9.3900,-8.7600,0.0000,0.0000,-0.0000,1020.0000,1101.0000,1500.0000,2000.0000
223567.4210,2.0000,2000.0000,1581.0000,2000.0000,196.0000,-142.0000,-104.0000,456.0000,-1503.0000,-206.0000,0.5206,-0.8187,-0.1149,-0.2135,110.9700,24.5400,-82.5600,14.6400,9.3500,-8.7300,0.0000,0.0000,-0.0000,1020.0000,1101.0000,1500.0000,2000.0000
223584.3620,2.0000,2000.0000,1581.0000,2000.0000,172.0000,-186.0000,-76.0000,756.0000,-1742.0000,2129.0000,0.5366,-0.8077,-0.1442,-0.1971,111.1400,24.6600,-82.7600,14.6300,9.0900,-8.6600,0.0000,0.0000,-0.0000,1020.0000,1101.0000,1500.0000,2000.0000
223601.4330,2.0000,2000.0000,1581.0000,2000.0000,116.0000,-214.0000,-40.0000,1125.0000,-1842.0000,5099.0000,0.5475,-0.8003,-0.1719,-0.1740,111.1400,24.6600,-82.7600,14.6300,9.0900,-8.6600,0.0000,0.0000,-0.0000,1020.0000,1101.0000,1500.0000,2000.0000
223618.3990,2.0000,2000.0000,1581.0000,2000.0000,41.0000,-227.0000,2.0000,1586.0000,-2366.0000,7516.0000,0.5502,-0.7987,-0.1941,-0.1470,111.2900,24.7700,-82.9500,14.6600,8.5800,-8.5200,0.0000,0.0000,-0.0000,1020.0000,1101.0000,1500.0000,2000.0000
223635.4170,2.0000,2000.0000,1330.0000,2000.0000,-21.0000,-225.0000,39.0000,1797.0000,-2609.0000,9367.0000,0.5448,-0.8032,-0.2101,-0.1181,111.4400,24.8600,-83.1400,14.7000,7.8100,-8.3300,0.0000,0.0000,-0.0000,1374.0000,1094.0000,1500.0000,2000.0000
223652.3320,2.0000,2000.0000,1219.0000,2000.0000,-67.0000,-214.0000,64.0000,1663.0000,-2359.0000,10331.0000,0.5332,-0.8118,-0.2206,-0.0894,111.5900,24.9300,-83.3200,14.6800,6.8800,-8.0700,0.0000,0.0000,-0.0000,1374.0000,1094.0000,1500.0000,2000.0000
223669.0670,2.0000,2000.0000,1219.0000,2000.0000,-92.0000,-206.0000,85.0000,1736.0000,-1841.0000,10250.0000,0.5173,-0.8229,-0.2268,-0.0614,111.7400,24.9900,-83.5000,14.6000,5.9400,-7.6900,0.0000,0.0000,-0.0000,1374.0000,1094.0000,1500.0000,2000.0000
223685.9980,2.0000,2000.0000,1219.0000,2000.0000,-91.0000,-216.0000,104.0000,1766.0000,-2047.0000,9767.0000,0.4993,-0.8347,-0.2300,-0.0319,111.9000,25.0300,-83.6500,14.5100,5.1200,-7.2400,0.0000,0.0000,-0.0000,1374.0000,1094.0000,1500.0000,2000.0000
223702.8620,2.0000,2000.0000,1219.0000,2000.0000,-66.0000,-239.0000,112.0000,1718.0000,-1760.0000,9160.0000,0.4819,-0.8448,-0.2325,0.0012,111.9000,25.0300,-83.6500,14.5100,5.1200,-7.2400,0.0000,0.0000,-0.0000,1374.0000,1094.0000,1500.0000,2000.0000
223720.0190,2.0000,2000.0000,1219.0000,2000.0000,-38.0000,-260.0000,119.0000,1813.0000,-1649.0000,9728.0000,0.4664,-0.8518,-0.2354,0.0394,112.3200,25.0900,-83.8400,14.5600,4.1500,-6.7800,0.0000,0.0000,-0.0000,1374.0000,1094.0000,1500.0000,2000.0000
223737.0450,2.0000,2000.0000,1926.0000,1690.0000,-26.0000,-265.0000,126.0000,1973.0000,-1813.0000,10865.0000,0.4522,-0.8559,-0.2379,0.0800,112.7300,25.1400,-84.0200,14.5500,3.2700,-6.2500,0.0000,0.0000,-0.0000,1191.0000,1623.0000,1500.0000,2000.0000
223754.1070,2.0000,2000.0000,1930.0000,1688.0000,-27.0000,-259.0000,126.0000,2026.0000,-1576.0000,11701.0000,0.4379,-0.8581,-0.2393,0.1210,113.1200,25.1600,-84.1800,14.4300,2.3800,-5.6400,0.0000,0.0000,-0.0000,1191.0000,1623.0000,1500.0000,2000.0000
223770.7800,2.0000,2000.0000,1930.0000,1688.0000,-37.0000,-232.0000,123.0000,1999.0000,-1313.0000,12437.0000,0.4227,-0.8595,-0.2397,0.1583,113.5000,25.1700,-84.3300,14.2000,1.5200,-4.9200,0.0000,0.0000,-0.0000,1191.0000,1623.0000,1500.0000,2000.0000
223787.7970,2.0000,2000.0000,1930.0000,1688.0000,-57.0000,-180.0000,115.0000,1952.0000,-1231.0000,12977.0000,0.4064,-0.8613,-0.2383,0.1904,113.9000,25.1800,-84.4600,13.9000,0.6900,-4.1100,0.0000,0.0000,-0.0000,1191.0000,1623.0000,1500.0000,2000.0000
223804.6010,2.0000,2000.0000,1930.0000,1688.0000,-82.0000,-114.0000,111.0000,1820.0000,-1030.0000,12295.0000,0.3894,-0.8650,-0.2340,0.2129,113.9000,25.1800,-84.4600,13.9000,0.6900,-4.1100,0.0000,0.0000,-0.0000,1191.0000,1623.0000,1500.0000,2000.0000
223821.7030,2.0000,2000.0000,1930.0000,1688.0000,-131.0000,-53.0000,108.0000,1658.0000,-724.0000,11709.0000,0.3697,-0.8722,-0.2273,0.2259,114.2800,25.1600,-84.5700,13.5300,-0.0400,-3.2600,0.0000,0.0000,-0.0000,1191.0000,1623.0000,1500.0000,2000.0000
223838.4880,2.0000,2000.0000,1930.0000,1688.0000,-192.0000,17.0000,106.0000,1440.0000,-392.0000,10732.0000,0.3448,-0.8837,-0.2194,0.2281,114.6300,25.1400,-84.6600,13.1900,-0.6200,-2.4100,0.0000,0.0000,-0.0000,1191.0000,1623.0000,1500.0000,2000.0000
223855.2790,2.0000,2000.0000,1186.0000,1060.0000,-256.0000,80.0000,103.0000,1152.0000,-16.0000,8866.0000,0.3135,-0.8996,-0.2104,0.2196,114.9800,25.1100,-84.7400,12.8900,-1.0500,-1.5400,0.0000,0.0000,-0.0000,1878.0000,1565.0000,1500.0000,2000.0000
223872.3370,2.0000,2000.0000,1186.0000,1060.0000,-284.0000,123.0000,99.0000,1169.0000,91.0000,6180.0000,0.2763,-0.9181,-0.2006,0.2015,115.3100,25.0700,-84.7900,12.7300,-1.2700,-0.7500,0.0000,0.0000,-0.0000,1878.0000,1565.0000,1500.0000,2000.0000
223889.6410,2.0000,2000.0000,1186.0000,1060.0000,-272.0000,154.0000,89.0000,1202.0000,404.0000,3192.0000,0.2384,-0.9358,-0.1896,0.1772,115.6900,25.0300,-84.8400,12.8800,-1.2900,-0.1400,0.0000,0.0000,-0.0000,1878.0000,1565.0000,1500.0000,2000.0000
223906.4630,2.0000,2000.0000,1186.0000,1060.0000,-211.0000,169.0000,69.0000,1261.0000,564.0000,558.0000,0.2071,-0.9500,-0.1787,0.1505,116.0700,25.0000,-84.8800,13.2200,-1.1200,0.2300,0.0000,0.0000,-0.0000,1878.0000,1565.0000,1500.0000,2000.0000
223923.3180,2.0000,2000.0000,1186.0000,1060.0000,-83.0000,169.0000,38.0000,1397.0000,1013.0000,-2054.0000,0.1892,-0.9593,-0.1688,0.1241,116.0700,25.0000,-84.8800,13.2200,-1.1200,0.2300,0.0000,0.0000,-0.0000,1878.0000,1565.0000,1500.0000,2000.0000
223940.2810,2.0000,2000.0000,1242.0000,1106.0000,91.0000,159.0000,-7.0000,1124.0000,1201.0000,-4314.0000,0.1942,-0.9623,-0.1616,0.1010,116.4700,24.9800,-84.9300,13.7300,-0.7500,0.3400,0.0000,0.0000,-0.0000,1774.0000,1577.0000,1500.0000,2000.0000
223957.2830,2.0000,2000.0000,1302.0000,1152.0000,215.0000,148.0000,-44.0000,482.0000,1132.0000,-6297.0000,0.2209,-0.9589,-0.1582,0.0821,116.9100,24.9600,-85.0000,14.3000,-0.2200,0.2000,0.0000,0.0000,-0.0000,1774.0000,1577.0000,1500.0000,2000.0000
223974.1360,2.0000,2000.0000,1302.0000,1152.0000,302.0000,110.0000,-69.0000,637.0000,1241.0000,-8087.0000,0.2618,-0.9497,-0.1582,0.0673,117.3400,24.9500,-85.0700,14.8000,0.4100,-0.1500,0.0000,0.0000,-0.0000,1774.0000,1577.0000,1500.0000,2000.0000
223991.1290,2.0000,2000.0000,1302.0000,1152.0000,317.0000,72.0000,-86.0000,801.0000,1252.0000,-8866.0000,0.3087,-0.9354,-0.1624,0.0585,117.8600,24.9500,-85.1500,15.3300,0.6700,-0.6100,0.0000,0.0000,-0.0000,1774.0000,1577.0000,1500.0000,2000.0000
224008.1400,2.0000,2000.0000,1302.0000,1152.0000,320.0000,14.0000,-95.0000,945.0000,775.0000,-7901.0000,0.3537,-0.9180,-0.1701,0.0559,118.3400,24.9500,-85.2400,15.7900,0.9700,-1.0400,0.0000,0.0000,-0.0000,1774.0000,1577.0000,1500.0000,2000.0000
224025.2920,2.0000,2000.0000,1302.0000,1152.0000,320.0000,-33.0000,-96.0000,807.0000,154.0000,-6150.0000,0.3977,-0.8975,-0.1807,0.0606,118.3400,24.9500,-85.2400,15.7900,0.9700,-1.0400,0.0000,0.0000,-0.0000,1774.0000,1577.0000,1500.0000,2000.0000
224042.1880,2.0000,1962.0000,2000.0000,1641.0000,322.0000,-60.0000,-88.0000,884.0000,-365.0000,-3819.0000,0.4392,-0.8748,-0.1923,0.0699,118.8000,24.9600,-85.3300,16.1200,1.1600,-1.3500,0.0000,0.0000,-0.0000,1012.0000,1842.0000,1500.0000,1965.0000
224059.0940,2.0000,1962.0000,2000.0000,1647.0000,330.0000,-70.0000,-78.0000,1008.0000,-771.0000,-1829.0000,0.4797,-0.8499,-0.2025,0.0813,119.2300,24.9700,-85.4200,16.3200,1.1600,-1.4700,0.0000,0.0000,-0.0000,1012.0000,1842.0000,1500.0000,1965.0000
224075.9000,2.0000,1962.0000,2000.0000,1647.0000,311.0000,-57.0000,-60.0000,926.0000,-881.0000,-527.0000,0.5185,-0.8235,-0.2104,0.0932,119.6400,24.9800,-85.5100,16.4200,0.9700,-1.4800,0.0000,0.0000,-0.0000,1012.0000,1842.0000,1500.0000,1965.0000
224092.9080,2.0000,1962.0000,2000.0000,1647.0000,241.0000,-30.0000,-39.0000,1273.0000,-1077.0000,617.0000,0.5514,-0.7993,-0.2154,0.1034,120.1300,24.9600,-85.6000,16.5300,0.4000,-1.4300,0.0000,0.0000,-0.0000,1012.0000,1842.0000,1500.0000,1965.0000
224109.9960,2.0000,1962.0000,2000.0000,1647.0000,145.0000,-3.0000,-10.0000,1362.0000,-1201.0000,905.0000,0.5742,-0.7819,-0.2166,0.1094,120.5800,24.9200,-85.6900,16.5700,-0.2000,-1.3600,0.0000,0.0000,-0.0000,1012.0000,1842.0000,1500.0000,1965.0000
224127.1030,2.0000,1962.0000,2000.0000,1647.0000,28.0000,15.0000,25.0000,1297.0000,-1158.0000,763.0000,0.5846,-0.7746,-0.2137,0.1119,120.5800,24.9200,-85.6900,16.5700,-0.2000,-1.3600,0.0000,0.0000,-0.0000,1012.0000,1842.0000,1500.0000,1965.0000
224144.1370,2.0000,2000.0000,2000.0000,1655.0000,-86.0000,36.0000,65.0000,1244.0000,-1213.0000,404.0000,0.5808,-0.7794,-0.2065,0.1119,121.0100,24.8800,-85.7800,16.5800,-0.7500,-1.2900,0.0000,0.0000,-0.0000,1143.0000,1704.0000,1500.0000,2000.0000
224161.1340,2.0000,2000.0000,2000.0000,1655.0000,-174.0000,65.0000,89.0000,1276.0000,-887.0000,-78.0000,0.5655,-0.7939,-0.1954,0.1088,121.4200,24.8300,-85.8700,16.5700,-1.1900,-1.2500,0.0000,0.0000,-0.0000,1143.0000,1704.0000,1500.0000,2000.0000
224178.2280,2.0000,2000.0000,2000.0000,1655.0000,-239.0000,87.0000,102.0000,998.0000,-549.0000,-1136.0000,0.5410,-0.8150,-0.1812,0.1011,121.8000,24.7700,-85.9600,16.5600,-1.5400,-1.1800,0.0000,0.0000,-0.0000,1143.0000,1704.0000,1500.0000,2000.0000
224195.2000,2.0000,2000.0000,2000.0000,1655.0000,-278.0000,93.0000,109.0000,790.0000,-544.0000,-2572.0000,0.5097,-0.8394,-0.1653,0.0915,122.2400,24.6700,-86.0500,16.5100,-1.9400,-1.1300,0.0000,0.0000,-0.0000,1143.0000,1704.0000,1500.0000,2000.0000
224212.0290,2.0000,2000.0000,2000.0000,1655.0000,-312.0000,94.0000,113.0000,911.0000,-435.0000,-4314.0000,0.4732,-0.8645,-0.1488,0.0810,122.6600,24.5800,-86.1300,16.4800,-2.1600,-1.1700,0.0000,0.0000,-0.0000,1143.0000,1704.0000,1500.0000,2000.0000
224228.7280,2.0000,2000.0000,2000.0000,1655.0000,-322.0000,76.0000,114.0000,612.0000,-201.0000,-5353.0000,0.4330,-0.8887,-0.1329,0.0716,122.6600,24.5800,-86.1300,16.4800,-2.1600,-1.1700,0.0000,0.0000,-0.0000,1143.0000,1704.0000,1500.0000,2000.0000
224245.8240,2.0000,2000.0000,1181.0000,1053.0000,-335.0000,44.0000,111.0000,647.0000,91.0000,-5608.0000,0.3888,-0.9115,-0.1179,0.0641,123.0500,24.4900,-86.2200,16.4500,-2.2100,-1.3200,0.0000,0.0000,-0.0000,1885.0000,1566.0000,1500.0000,2000.0000
224262.4170,2.0000,2000.0000,1180.0000,1052.0000,-347.0000,23.0000,104.0000,502.0000,-132.0000,-4395.0000,0.3426,-0.9315,-0.1063,0.0608,123.4100,24.4000,-86.3100,16.3800,-2.2200,-1.5100,0.0000,0.0000,-0.0000,1885.0000,1566.0000,1500.0000,2000.0000
224279.5950,2.0000,2000.0000,1180.0000,1052.0000,-340.0000,12.0000,92.0000,658.0000,-5.0000,-3405.0000,0.2930,-0.9495,-0.0962,0.0585,123.7500,24.3200,-86.4000,16.2700,-2.3300,-1.6900,0.0000,0.0000,-0.0000,1885.0000,1566.0000,1500.0000,2000.0000
224296.6880,2.0000,2000.0000,1180.0000,1052.0000,-274.0000,20.0000,79.0000,1206.0000,116.0000,-2641.0000,0.2481,-0.9632,-0.0870,0.0556,124.1500,24.2000,-86.4900,16.2000,-2.6500,-1.7900,0.0000,0.0000,-0.0000,1885.0000,1566.0000,1500.0000,2000.0000
224313.5340,2.0000,2000.0000,1180.0000,1052.0000,-161.0000,31.0000,57.0000,1466.0000,49.0000,-2137.0000,0.2165,-0.9717,-0.0791,0.0522,124.5200,24.0900,-86.5800,16.1600,-2.9800,-1.8200,0.0000,0.0000,-0.0000,1885.0000,1566.0000,1500.0000,2000.0000
224330.5460,2.0000,2000.0000,1180.0000,1052.0000,-17.0000,52.0000,31.0000,640.0000,589.0000,-3281.0000,0.2036,-0.9752,-0.0729,0.0466,124.5200,24.0900,-86.5800,16.1600,-2.9800,-1.8200,0.0000,0.0000,-0.0000,1885.0000,1566.0000,1500.0000,2000.0000
224347.2940,2.0000,2000.0000,1171.0000,1033.0000,136.0000,32.0000,-15.0000,559.0000,1490.0000,-4992.0000,0.2132,-0.9735,-0.0709,0.0415,124.8700,23.9800,-86.6600,16.0700,-3.2500,-1.8600,0.0000,0.0000,-0.0000,1899.0000,1571.0000,1500.0000,2000.0000
224364.2850,2.0000,2000.0000,1171.0000,1033.0000,255.0000,15.0000,-51.0000,710.0000,1349.0000,-5251.0000,0.2423,-0.9665,-0.0752,0.0398,125.1900,23.8700,-86.7300,15.9600,-3.3200,-2.0300,0.0000,0.0000,-0.0000,1899.0000,1571.0000,1500.0000,2000.0000
224381.0930,2.0000,2000.0000,1171.0000,1033.0000,336.0000,11.0000,-67.0000,184.0000,723.0000,-4856.0000,0.2848,-0.9542,-0.0823,0.0398,125.5100,23.7600,-86.7900,15.8800,-3.3200,-2.2500,0.0000,0.0000,-0.0000,1899.0000,1571.0000,1500.0000,2000.0000
224398.4610,2.0000,2000.0000,1171.0000,1033.0000,393.0000,-12.0000,-80.0000,214.0000,482.0000,-4981.0000,0.3381,-0.9357,-0.0914,0.0420,125.8900,23.6400,-86.8400,15.8900,-3.3700,-2.4300,0.0000,0.0000,-0.0000,1899.0000,1571.0000,1500.0000,2000.0000
224415.2450,2.0000,2000.0000,1171.0000,1033.0000,430.0000,-27.0000,-86.0000,759.0000,368.0000,-4710.0000,0.3943,-0.9122,-0.1013,0.0459,126.2400,23.5200,-86.8800,15.9000,-3.3900,-2.5800,0.0000,0.0000,-0.0000,1899.0000,1571.0000,1500.0000,2000.0000
224432.2810,2.0000,2000.0000,1171.0000,1033.0000,455.0000,-35.0000,-82.0000,888.0000,112.0000,-3569.0000,0.4537,-0.8827,-0.1111,0.0516,126.2400,23.5200,-86.8800,15.9000,-3.3900,-2.5800,0.0000,0.0000,-0.0000,1899.0000,1571.0000,1500.0000,2000.0000
224448.9960,2.0000,1955.0000,2000.0000,1681.0000,465.0000,-38.0000,-77.0000,720.0000,-232.0000,-2185.0000,0.5119,-0.8487,-0.1196,0.0582,126.5700,23.4100,-86.9200,15.9400,-3.4100,-2.6400,0.0000,0.0000,-0.0000,1009.0000,1811.0000,1500.0000,1958.0000
224465.6020,2.0000,1955.0000,2000.0000,1681.0000,471.0000,-27.0000,-61.0000,714.0000,-610.0000,-851.0000,0.5683,-0.8106,-0.1257,0.0645,126.8800,23.3100,-86.9600,15.9300,-3.5000,-2.5800,0.0000,0.0000,-0.0000,1009.0000,1811.0000,1500.0000,1958.0000
224482.1130,2.0000,1955.0000,2000.0000,1681.0000,448.0000,0.0000,-40.0000,1051.0000,-828.0000,471.0000,0.6212,-0.7701,-0.1274,0.0696,127.2000,23.2100,-86.9900,15.8900,-3.6800,-2.4600,0.0000,0.0000,-0.0000,1009.0000,1811.0000,1500.0000,1958.0000
224499.1690,2.0000,1955.0000,2000.0000,1681.0000,376.0000,21.0000,-15.0000,1490.0000,-1130.0000,1430.0000,0.6680,-0.7300,-0.1248,0.0733,127.5600,23.1000,-87.0400,15.9400,-3.9300,-2.3200,0.0000,0.0000,-0.0000,1009.0000,1811.0000,1500.0000,1958.0000
224516.1530,2.0000,1955.0000,2000.0000,1681.0000,265.0000,40.0000,15.0000,1198.0000,-1232.0000,1131.0000,0.7025,-0.6976,-0.1187,0.0762,127.9000,22.9800,-87.1000,15.9700,-4.2100,-2.2400,0.0000,0.0000,-0.0000,1009.0000,1811.0000,1500.0000,1958.0000
224532.9460,2.0000,1955.0000,2000.0000,1681.0000,112.0000,55.0000,58.0000,995.0000,-1436.0000,277.0000,0.7219,-0.6791,-0.1078,0.0783,127.9000,22.9800,-87.1000,15.9700,-4.2100,-2.2400,0.0000,0.0000,-0.0000,1009.0000,1811.0000,1500.0000,1958.0000
224549.9360,2.0000,1999.0000,1898.0000,2000.0000,-50.0000,73.0000,101.0000,1322.0000,-1424.0000,-475.0000,0.7244,-0.6783,-0.0924,0.0812,128.2200,22.8700,-87.1800,15.9600,-4.3800,-2.1900,0.0000,0.0000,-0.0000,1044.0000,1440.0000,1500.0000,2000.0000
224566.7290,2.0000,2000.0000,1897.0000,2000.0000,-163.0000,92.0000,130.0000,829.0000,-1453.0000,-521.0000,0.7128,-0.6924,-0.0735,0.0839,128.5300,22.7600,-87.2700,15.9500,-4.4500,-2.1600,0.0000,0.0000,-0.0000,1044.0000,1440.0000,1500.0000,2000.0000
224583.7290,2.0000,2000.0000,1897.0000,2000.0000,-248.0000,90.0000,151.0000,1075.0000,-878.0000,-2818.0000,0.6901,-0.7165,-0.0523,0.0875,128.8300,22.6500,-87.3500,15.9400,-4.4500,-2.1200,0.0000,0.0000,-0.0000,1044.0000,1440.0000,1500.0000,2000.0000
224600.7500,2.0000,2000.0000,1897.0000,2000.0000,-319.0000,64.0000,162.0000,585.0000,-518.0000,-4337.0000,0.6574,-0.7470,-0.0319,0.0937,129.2000,22.5400,-87.4300,16.0800,-4.1300,-2.0300,0.0000,0.0000,-0.0000,1044.0000,1440.0000,1500.0000,2000.0000
224617.5610,2.0000,2000.0000,1897.0000,2000.0000,-379.0000,39.0000,172.0000,482.0000,-51.0000,-4636.0000,0.6157,-0.7811,-0.0140,0.1030,129.5500,22.4400,-87.5100,16.1600,-3.7100,-1.9500,0.0000,0.0000,-0.0000,1044.0000,1440.0000,1500.0000,2000.0000
224634.4880,2.0000,2000.0000,1000.0000,1505.0000,-421.0000,-1.0000,172.0000,232.0000,124.0000,-3617.0000,0.5649,-0.8169,0.0005,0.1162,129.5500,22.4400,-87.5100,16.1600,-3.7100,-1.9500,0.0000,0.0000,-0.0000,1886.0000,1134.0000,1500.0000,2000.0000
224651.1110,2.0000,2000.0000,1000.0000,1481.0000,-446.0000,-7.0000,168.0000,-63.0000,199.0000,-2024.0000,0.5090,-0.8506,0.0115,0.1313,129.8700,22.3600,-87.5900,16.1900,-3.3600,-1.8700,0.0000,0.0000,-0.0000,1886.0000,1134.0000,1500.0000,2000.0000
224667.9860,2.0000,2000.0000,1000.0000,1481.0000,-451.0000,-19.0000,153.0000,148.0000,696.0000,-848.0000,0.4481,-0.8817,0.0207,0.1463,130.1800,22.2900,-87.6600,16.1300,-3.1900,-1.7800,0.0000,0.0000,-0.0000,1886.0000,1134.0000,1500.0000,2000.0000
224684.9520,2.0000,2000.0000,1000.0000,1481.0000,-437.0000,-16.0000,129.0000,441.0000,1167.0000,1004.0000,0.3853,-0.9085,0.0268,0.1596,130.4900,22.2200,-87.7200,16.0700,-3.1500,-1.5900,0.0000,0.0000,-0.0000,1886.0000,1134.0000,1500.0000,2000.0000
224701.8170,2.0000,2000.0000,1000.0000,1481.0000,-390.0000,-29.0000,83.0000,553.0000,1607.0000,2245.0000,0.3257,-0.9296,0.0295,0.1700,130.8600,22.1400,-87.7800,16.0700,-3.2000,-1.2500,0.0000,0.0000,-0.0000,1886.0000,1134.0000,1500.0000,2000.0000
224718.8090,2.0000,2000.0000,1000.0000,1481.0000,-285.0000,-55.0000,31.0000,829.0000,1298.0000,2384.0000,0.2775,-0.9433,0.0260,0.1803,131.2000,22.0700,-87.8300,16.0400,-3.2400,-0.8100,0.0000,0.0000,-0.0000,1886.0000,1134.0000,1500.0000,2000.0000
224735.8830,2.0000,2000.0000,1000.0000,1316.0000,-163.0000,-79.0000,-16.0000,913.0000,643.0000,2362.0000,0.2463,-0.9501,0.0174,0.1908,131.2000,22.0700,-87.8300,16.0400,-3.2400,-0.8100,0.0000,0.0000,-0.0000,1853.0000,1331.0000,1500.0000,2000.0000
224752.6720,2.0000,2000.0000,1000.0000,1316.0000,-58.0000,-102.0000,-63.0000,806.0000,643.0000,2555.0000,0.2326,-0.9513,0.0046,0.2025,131.5200,22.0000,-87.8800,16.0100,-3.3200,-0.3700,0.0000,0.0000,-0.0000,1853.0000,1331.0000,1500.0000,2000.0000
224769.3880,2.0000,2000.0000,1000.0000,1316.0000,36.0000,-130.0000,-112.0000,683.0000,665.0000,3334.0000,0.2335,-0.9480,-0.0129,0.2159,131.8200,21.9300,-87.9200,15.9500,-3.4100,0.0500,0.0000,0.0000,-0.0000,1853.0000,1331.0000,1500.0000,2000.0000
224786.6050,2.0000,2000.0000,1000.0000,1316.0000,128.0000,-130.0000,-143.0000,563.0000,276.0000,4413.0000,0.2494,-0.9399,-0.0340,0.2309,132.1200,21.8600,-87.9400,15.8700,-3.4600,0.5200,0.0000,0.0000,-0.0000,1853.0000,1331.0000,1500.0000,2000.0000
224803.6510,2.0000,2000.0000,1000.0000,1316.0000,190.0000,-116.0000,-164.0000,870.0000,-226.0000,6408.0000,0.2765,-0.9282,-0.0548,0.2431,132.4900,21.7900,-87.9600,15.8400,-3.5200,1.0600,0.0000,0.0000,-0.0000,1853.0000,1331.0000,1500.0000,2000.0000
224820.3020,2.0000,2000.0000,1000.0000,1316.0000,228.0000,-102.0000,-176.0000,1129.0000,-330.0000,7331.0000,0.3100,-0.9137,-0.0745,0.2522,132.8400,21.7200,-87.9600,15.7200,-3.7300,1.7200,0.0000,0.0000,-0.0000,1853.0000,1331.0000,1500.0000,2000.0000
224837.3950,2.0000,2000.0000,1000.0000,1316.0000,256.0000,-85.0000,-173.0000,1082.0000,-594.0000,7342.0000,0.3484,-0.8961,-0.0930,0.2589,132.8400,21.7200,-87.9600,15.7200,-3.7300,1.7200,0.0000,0.0000,-0.0000,1853.0000,1331.0000,1500.0000,2000.0000
224854.5020,2.0000,2000.0000,1000.0000,1316.0000,292.0000,-72.0000,-166.0000,764.0000,-1311.0000,7072.0000,0.3901,-0.8755,-0.1084,0.2638,133.1500,21.6600,-87.9400,15.5500,-4.0100,2.3700,0.0000,0.0000,-0.0000,1853.0000,1331.0000,1500.0000,2000.0000
224871.5710,2.0000,2000.0000,1673.0000,2000.0000,335.0000,-59.0000,-151.0000,699.0000,-1552.0000,7233.0000,0.4365,-0.8508,-0.1193,0.2672,133.4500,21.5900,-87.9100,15.3500,-4.3100,2.8800,0.0000,0.0000,-0.0000,1034.0000,1207.0000,1500.0000,2000.0000
224888.6490,2.0000,2000.0000,1673.0000,2000.0000,349.0000,-40.0000,-126.0000,868.0000,-1619.0000,7577.0000,0.4850,-0.8225,-0.1251,0.2696,133.7500,21.5100,-87.8700,15.1900,-4.6300,3.2900,0.0000,0.0000,-0.0000,1034.0000,1207.0000,1500.0000,2000.0000
224905.6050,2.0000,2000.0000,1673.0000,2000.0000,299.0000,-37.0000,-94.0000,1204.0000,-1901.0000,7403.0000,0.5283,-0.7943,-0.1276,0.2715,134.1000,21.4300,-87.8200,15.1400,-4.9500,3.6200,0.0000,0.0000,-0.0000,1034.0000,1207.0000,1500.0000,2000.0000
224922.6390,2.0000,2000.0000,1673.0000,2000.0000,209.0000,-59.0000,-45.0000,1211.0000,-2269.0000,5460.0000,0.5603,-0.7703,-0.1287,0.2761,134.4300,21.3500,-87.7700,15.1300,-5.2700,3.8300,0.0000,0.0000,-0.0000,1034.0000,1207.0000,1500.0000,2000.0000
224939.6350,2.0000,2000.0000,1673.0000,2000.0000,85.0000,-81.0000,3.0000,899.0000,-1930.0000,4390.0000,0.5768,-0.7545,-0.1303,0.2848,134.7400,21.2600,-87.7100,15.1800,-5.4200,3.9200,0.0000,0.0000,-0.0000,1034.0000,1207.0000,1500.0000,2000.0000
224956.4580,2.0000,2000.0000,1933.0000,1933.0000,-58.0000,-95.0000,49.0000,907.0000,-1873.0000,4692.0000,0.5752,-0.7505,-0.1338,0.2966,134.7400,21.2600,-87.7100,15.1800,-5.4200,3.9200,0.0000,0.0000,-0.0000,1067.0000,1503.0000,1500.0000,2000.0000
224973.1490,2.0000,2000.0000,1934.0000,1932.0000,-149.0000,-105.0000,88.0000,716.0000,-1752.0000,4747.0000,0.5584,-0.7567,-0.1385,0.3105,135.0400,21.1800,-87.6400,15.2000,-5.5500,4.0100,0.0000,0.0000,-0.0000,1067.0000,1503.0000,1500.0000,2000.0000
224990.3870,2.0000,2000.0000,1934.0000,1932.0000,-212.0000,-103.0000,122.0000,810.0000,-1453.0000,5134.0000,0.5304,-0.7691,-0.1431,0.3268,135.3500,21.0900,-87.5700,15.1800,-5.6800,4.1300,0.0000,0.0000,-0.0000,1067.0000,1503.0000,1500.0000,2000.0000
225007.3270,2.0000,2000.0000,1934.0000,1932.0000,-277.0000,-90.0000,146.0000,727.0000,-1503.0000,5960.0000,0.4937,-0.7857,-0.1469,0.3426,135.6900,21.0000,-87.5000,15.1500,-5.7800,4.3100,0.0000,0.0000,-0.0000,1067.0000,1503.0000,1500.0000,2000.0000
225024.3440,2.0000,2000.0000,1934.0000,1932.0000,-342.0000,-66.0000,166.0000,296.0000,-1382.0000,6743.0000,0.4474,-0.8067,-0.1497,0.3558,136.0200,20.9100,-87.4200,15.0100,-5.9300,4.5600,0.0000,0.0000,-0.0000,1067.0000,1503.0000,1500.0000,2000.0000
225041.4000,2.0000,2000.0000,1000.0000,1265.0000,-418.0000,-37.0000,175.0000,301.0000,-1091.0000,7019.0000,0.3906,-0.8318,-0.1520,0.3639,136.3300,20.8200,-87.3300,14.7700,-6.0700,4.9000,0.0000,0.0000,-0.0000,1924.0000,1313.0000,1500.0000,2000.0000
225057.9500,2.0000,2000.0000,1000.0000,1263.0000,-453.0000,0.0000,175.0000,373.0000,-573.0000,6505.0000,0.3280,-0.8574,-0.1542,0.3655,136.3300,20.8200,-87.3300,14.7700,-6.0700,4.9000,0.0000,0.0000,-0.0000,1924.0000,1313.0000,1500.0000,2000.0000
225074.7910,2.0000,2000.0000,1000.0000,1263.0000,-463.0000,26.0000,167.0000,378.0000,-90.0000,4537.0000,0.2604,-0.8819,-0.1563,0.3607,136.6300,20.7300,-87.2400,14.5100,-6.1300,5.3500,0.0000,0.0000,-0.0000,1924.0000,1313.0000,1500.0000,2000.0000
225091.8860,2.0000,2000.0000,1000.0000,1263.0000,-417.0000,38.0000,151.0000,575.0000,220.0000,2314.0000,0.1932,-0.9026,-0.1574,0.3510,136.9200,20.6400,-87.1400,14.3900,-6.0300,5.8100,0.0000,0.0000,-0.0000,1924.0000,1313.0000,1500.0000,2000.0000
225108.8810,2.0000,2000.0000,1000.0000,1263.0000,-312.0000,37.0000,122.0000,744.0000,381.0000,738.0000,0.1370,-0.9168,-0.1569,0.3407,137.2500,20.5600,-87.0200,14.4500,-5.8400,6.1800,0.0000,0.0000,-0.0000,1924.0000,1313.0000,1500.0000,2000.0000
225125.8490,2.0000,2000.0000,1000.0000,1263.0000,-174.0000,18.0000,66.0000,1023.0000,1124.0000,-771.0000,0.0995,-0.9246,-0.1557,0.3331,137.5600,20.4800,-86.9000,14.6600,-5.5800,6.4400,0.0000,0.0000,-0.0000,1924.0000,1313.0000,1500.0000,2000.0000
225142.6420,2.0000,2000.0000,1000.0000,1263.0000,-13.0000,-15.0000,4.0000,517.0000,1701.0000,-1582.0000,0.0854,-0.9266,-0.1556,0.3314,137.8800,20.4300,-86.7800,15.0000,-5.1700,6.6100,0.0000,0.0000,-0.0000,1924.0000,1313.0000,1500.0000,2000.0000
225159.5480,2.0000,2000.0000,1171.0000,1041.0000,127.0000,-34.0000,-49.0000,-114.0000,1539.0000,-1775.0000,0.0951,-0.9241,-0.1560,0.3356,137.8800,20.4300,-86.7800,15.0000,-5.1700,6.6100,0.0000,0.0000,-0.0000,1895.0000,1567.0000,1500.0000,2000.0000
225176.4150,2.0000,2000.0000,1171.0000,1041.0000,222.0000,-42.0000,-91.0000,-89.0000,1199.0000,-1196.0000,0.1224,-0.9175,-0.1573,0.3441,138.1900,20.3900,-86.6600,15.2900,-4.7400,6.6900,0.0000,0.0000,-0.0000,1895.0000,1567.0000,1500.0000,2000.0000
