t_ms,msp,motor,servo0,servo1,gyro_p,gyro_q,gyro_r,acc_x,acc_y,acc_z,qw,qx,qy,qz,pos_n,pos_e,pos_d,vel_n,vel_e,vel_d,tgtpos_n,tgtpos_e,tgtpos_d,rcData0,rcData1,rcData2,rcData3
228016.4280,3.0000,1440.0000,1500.0000,1500.0000,-10.0000,14.0000,0.0000,338.0000,-141.0000,1361.0000,0.4553,0.0558,-0.1927,0.8674,132.5200,-45.5900,-91.1300,-15.2800,-6.4800,-3.9300,0.0000,0.0000,-0.0000,1500.0000,1500.0000,1500.0000,1470.0000
228033.0480,3.0000,1440.0000,1500.0000,1500.0000,-9.0000,15.0000,0.0000,306.0000,-127.0000,1302.0000,0.4558,0.0534,-0.1925,0.8674,132.2300,-45.7200,-91.2000,-15.2700,-6.5000,-3.8600,0.0000,0.0000,-0.0000,1500.0000,1500.0000,1500.0000,1470.0000
228049.5470,3.0000,1440.0000,1500.0000,1500.0000,-10.0000,15.0000,0.0000,256.0000,-197.0000,1240.0000,0.4564,0.0508,-0.1924,0.8673,131.9100,-45.8600,-91.2800,-15.2800,-6.5200,-3.7900,0.0000,0.0000,-0.0000,1500.0000,1500.0000,1500.0000,1470.0000
228066.2640,3.0000,1440.0000,1500.0000,1500.0000,-8.0000,16.0000,0.0000,341.0000,-151.0000,1225.0000,0.4568,0.0482,-0.1920,0.8672,131.9100,-45.8600,-91.2800,-15.2800,-6.5200,-3.7900,0.0000,0.0000,-0.0000,1500.0000,1500.0000,1500.0000,1470.0000
228082.9100,3.0000,1440.0000,1500.0000,1500.0000,-9.0000,16.0000,0.0000,313.0000,-103.0000,1145.0000,0.4573,0.0455,-0.1916,0.8672,131.5900,-46.0000,-91.3500,-15.2800,-6.5500,-3.7200,0.0000,0.0000,-0.0000,1500.0000,1500.0000,1500.0000,1470.0000
228099.4370,3.0000,1440.0000,1500.0000,1500.0000,-8.0000,17.0000,0.0000,352.0000,-43.0000,1137.0000,0.4579,0.0429,-0.1910,0.8672,131.2800,-46.1400,-91.4100,-15.2900,-6.5700,-3.6400,0.0000,0.0000,-0.0000,1500.0000,1500.0000,1500.0000,1470.0000
228116.1360,3.0000,1440.0000,1500.0000,1500.0000,-7.0000,17.0000,0.0000,362.0000,-154.0000,1175.0000,0.4584,0.0401,-0.1903,0.8672,130.9800,-46.2800,-91.4800,-15.2900,-6.5900,-3.5600,0.0000,0.0000,-0.0000,1500.0000,1500.0000,1500.0000,1470.0000
228132.6730,3.0000,1440.0000,1500.0000,1500.0000,-8.0000,18.0000,0.0000,365.0000,-180.0000,1171.0000,0.4588,0.0373,-0.1895,0.8673,130.6900,-46.4100,-91.5400,-15.2800,-6.6100,-3.4800,0.0000,0.0000,-0.0000,1500.0000,1500.0000,1500.0000,1470.0000
228149.3530,3.0000,1440.0000,1500.0000,1500.0000,-8.0000,17.0000,0.0000,323.0000,-189.0000,1175.0000,0.4593,0.0344,-0.1889,0.8673,130.6900,-46.4100,-91.5400,-15.2800,-6.6100,-3.4800,0.0000,0.0000,-0.0000,1500.0000,1500.0000,1500.0000,1470.0000
228165.8730,3.0000,1440.0000,1500.0000,1500.0000,-8.0000,17.0000,1.0000,309.0000,-141.0000,1230.0000,0.4597,0.0316,-0.1881,0.8674,130.3700,-46.5600,-91.6100,-15.2800,-6.6500,-3.4100,0.0000,0.0000,-0.0000,1500.0000,1500.0000,1500.0000,1470.0000
228182.4000,3.0000,1440.0000,1500.0000,1500.0000,-9.0000,19.0000,1.0000,320.0000,-144.0000,1249.0000,0.4600,0.0286,-0.1875,0.8674,130.0600,-46.7000,-91.6700,-15.2800,-6.6800,-3.3300,0.0000,0.0000,-0.0000,1500.0000,1500.0000,1500.0000,1470.0000
228198.9960,3.0000,1440.0000,1500.0000,1500.0000,-11.0000,18.0000,2.0000,329.0000,-144.0000,1202.0000,0.4604,0.0254,-0.1870,0.8674,129.7500,-46.8500,-91.7300,-15.2800,-6.7000,-3.2600,0.0000,0.0000,-0.0000,1500.0000,1498.0000,1500.0000,1470.0000
228215.5200,3.0000,1440.0000,1500.0000,1500.0000,-11.0000,18.0000,2.0000,319.0000,-157.0000,1096.0000,0.4607,0.0222,-0.1866,0.8674,129.4500,-46.9900,-91.7900,-15.2700,-6.7200,-3.1900,0.0000,0.0000,-0.0000,1500.0000,1498.0000,1500.0000,1470.0000
228232.1840,3.0000,1440.0000,1500.0000,1500.0000,-10.0000,18.0000,2.0000,299.0000,-116.0000,973.0000,0.4610,0.0192,-0.1862,0.8674,129.1500,-47.1200,-91.8500,-15.2600,-6.7500,-3.1000,0.0000,0.0000,-0.0000,1500.0000,1500.0000,1500.0000,1470.0000
228248.8210,3.0000,1437.0000,1500.0000,1500.0000,-11.0000,18.0000,2.0000,293.0000,-142.0000,921.0000,0.4613,0.0161,-0.1860,0.8674,129.1500,-47.1200,-91.8500,-15.2600,-6.7500,-3.1000,0.0000,0.0000,-0.0000,1500.0000,1500.0000,1500.0000,1468.0000
228265.2710,3.0000,1440.0000,1500.0000,1500.0000,-11.0000,18.0000,2.0000,293.0000,-162.0000,932.0000,0.4614,0.0133,-0.1858,0.8674,128.8400,-47.2700,-91.9100,-15.2700,-6.7700,-3.0000,0.0000,0.0000,-0.0000,1500.0000,1500.0000,1500.0000,1470.0000
228282.0090,3.0000,1440.0000,1500.0000,1500.0000,-12.0000,18.0000,2.0000,303.0000,-121.0000,1037.0000,0.4616,0.0102,-0.1857,0.8674,128.5300,-47.4200,-91.9700,-15.2800,-6.7900,-2.9000,0.0000,0.0000,-0.0000,1500.0000,1498.0000,1500.0000,1470.0000
228298.6290,3.0000,1440.0000,1500.0000,1500.0000,-12.0000,17.0000,1.0000,291.0000,-70.0000,1066.0000,0.4618,0.0071,-0.1854,0.8674,128.2200,-47.5600,-92.0200,-15.2900,-6.8100,-2.8100,0.0000,0.0000,-0.0000,1500.0000,1500.0000,1500.0000,1470.0000
228315.1190,3.0000,1440.0000,1500.0000,1500.0000,-12.0000,17.0000,1.0000,333.0000,-54.0000,1073.0000,0.4620,0.0040,-0.1852,0.8673,127.9200,-47.7100,-92.0700,-15.2900,-6.8200,-2.7200,0.0000,0.0000,-0.0000,1500.0000,1498.0000,1500.0000,1470.0000
228331.9250,3.0000,1440.0000,1500.0000,1500.0000,-12.0000,17.0000,0.0000,373.0000,-42.0000,1072.0000,0.4623,0.0010,-0.1850,0.8672,127.6300,-47.8500,-92.1200,-15.3000,-6.8300,-2.6300,0.0000,0.0000,-0.0000,1500.0000,1500.0000,1500.0000,1471.0000
228348.6610,3.0000,1437.0000,1500.0000,1500.0000,-13.0000,17.0000,0.0000,379.0000,-48.0000,1178.0000,0.4627,-0.0020,-0.1848,0.8670,127.6300,-47.8500,-92.1200,-15.3000,-6.8300,-2.6300,0.0000,0.0000,-0.0000,1500.0000,1500.0000,1500.0000,1468.0000
228365.3940,3.0000,1437.0000,1500.0000,1500.0000,-16.0000,18.0000,0.0000,364.0000,-51.0000,1333.0000,0.4630,-0.0052,-0.1848,0.8669,127.3100,-48.0000,-92.1700,-15.3200,-6.8500,-2.5500,0.0000,0.0000,-0.0000,1500.0000,1500.0000,1500.0000,1468.0000
228382.0170,3.0000,1437.0000,1500.0000,1500.0000,-21.0000,18.0000,0.0000,353.0000,-180.0000,1522.0000,0.4633,-0.0086,-0.1857,0.8665,127.0000,-48.1400,-92.2200,-15.3500,-6.8700,-2.4800,0.0000,0.0000,-0.0000,1500.0000,1500.0000,1500.0000,1468.0000
228398.5120,3.0000,1437.0000,1500.0000,1500.0000,-20.0000,18.0000,0.0000,366.0000,-170.0000,1694.0000,0.4637,-0.0121,-0.1867,0.8660,126.6900,-48.2900,-92.2700,-15.3600,-6.8800,-2.4300,0.0000,0.0000,-0.0000,1500.0000,1500.0000,1500.0000,1468.0000
228415.2290,3.0000,1440.0000,1500.0000,1500.0000,-19.0000,18.0000,1.0000,336.0000,-249.0000,1746.0000,0.4639,-0.0158,-0.1879,0.8656,126.3900,-48.4300,-92.3200,-15.3700,-6.8800,-2.4100,0.0000,0.0000,-0.0000,1500.0000,1500.0000,1500.0000,1470.0000
228431.8730,3.0000,1440.0000,1500.0000,1500.0000,-15.0000,18.0000,3.0000,363.0000,-263.0000,1646.0000,0.4640,-0.0192,-0.1886,0.8653,126.3900,-48.4300,-92.3200,-15.3700,-6.8800,-2.4100,0.0000,0.0000,-0.0000,1500.0000,1500.0000,1500.0000,1470.0000
228448.6800,3.0000,1440.0000,1500.0000,1500.0000,-12.0000,17.0000,4.0000,360.0000,-230.0000,1549.0000,0.4639,-0.0225,-0.1889,0.8652,126.0900,-48.5700,-92.3600,-15.3600,-6.8800,-2.3800,0.0000,0.0000,-0.0000,1500.0000,1500.0000,1500.0000,1470.0000
228465.1530,3.0000,1440.0000,1500.0000,1500.0000,-10.0000,17.0000,5.0000,339.0000,-180.0000,1594.0000,0.4636,-0.0254,-0.1888,0.8653,125.7700,-48.7300,-92.4100,-15.3900,-6.9100,-2.3400,0.0000,0.0000,-0.0000,1500.0000,1498.0000,1500.0000,1470.0000
228481.6980,3.0000,1440.0000,1500.0000,1500.0000,-6.0000,17.0000,6.0000,330.0000,-240.0000,1679.0000,0.4631,-0.0283,-0.1884,0.8656,125.4600,-48.8700,-92.4500,-15.4100,-6.9200,-2.2900,0.0000,0.0000,-0.0000,1500.0000,1500.0000,1500.0000,1470.0000
228498.5520,3.0000,1440.0000,1500.0000,1500.0000,-4.0000,17.0000,8.0000,328.0000,-289.0000,1643.0000,0.4625,-0.0308,-0.1876,0.8660,125.1600,-49.0200,-92.5000,-15.4300,-6.9300,-2.2600,0.0000,0.0000,-0.0000,1500.0000,1500.0000,1500.0000,1470.0000
228515.2590,3.0000,1440.0000,1500.0000,1500.0000,-2.0000,16.0000,9.0000,335.0000,-292.0000,1548.0000,0.4617,-0.0334,-0.1866,0.8665,124.8500,-49.1600,-92.5400,-15.4300,-6.9400,-2.2200,0.0000,0.0000,-0.0000,1500.0000,1500.0000,1500.0000,1470.0000
228531.9740,3.0000,1440.0000,1500.0000,1500.0000,0.0000,16.0000,10.0000,375.0000,-227.0000,1532.0000,0.4607,-0.0356,-0.1852,0.8673,124.8500,-49.1600,-92.5400,-15.4300,-6.9400,-2.2200,0.0000,0.0000,-0.0000,1500.0000,1500.0000,1500.0000,1470.0000
228548.6340,3.0000,1440.0000,1500.0000,1500.0000,5.0000,15.0000,12.0000,379.0000,-302.0000,1573.0000,0.4594,-0.0382,-0.1837,0.8682,124.5600,-49.3100,-92.5800,-15.4300,-6.9500,-2.1700,0.0000,0.0000,-0.0000,1500.0000,1500.0000,1500.0000,1470.0000
228565.2670,3.0000,1440.0000,1500.0000,1500.0000,6.0000,14.0000,13.0000,386.0000,-266.0000,1618.0000,0.4580,-0.0405,-0.1816,0.8692,124.2700,-49.4400,-92.6200,-15.4300,-6.9600,-2.1300,0.0000,0.0000,-0.0000,1500.0000,1498.0000,1500.0000,1470.0000
228581.9560,3.0000,1437.0000,1500.0000,1500.0000,5.0000,14.0000,14.0000,381.0000,-256.0000,1620.0000,0.4564,-0.0427,-0.1798,0.8704,123.9800,-49.5800,-92.6600,-15.4200,-6.9700,-2.0900,0.0000,0.0000,-0.0000,1500.0000,1498.0000,1500.0000,1468.0000
228598.7280,3.0000,1437.0000,1500.0000,1500.0000,3.0000,13.0000,16.0000,342.0000,-221.0000,1509.0000,0.4545,-0.0451,-0.1781,0.8716,123.7100,-49.7100,-92.7000,-15.4100,-6.9700,-2.0500,0.0000,0.0000,-0.0000,1500.0000,1498.0000,1500.0000,1470.0000
228615.4100,3.0000,1440.0000,1500.0000,1500.0000,8.0000,13.0000,18.0000,301.0000,-269.0000,1291.0000,0.4524,-0.0474,-0.1765,0.8729,123.7100,-49.7100,-92.7000,-15.4100,-6.9700,-2.0500,0.0000,0.0000,-0.0000,1500.0000,1498.0000,1500.0000,1470.0000
228632.2070,3.0000,1440.0000,1500.0000,1500.0000,8.0000,13.0000,19.0000,302.0000,-234.0000,1037.0000,0.4501,-0.0490,-0.1746,0.8744,123.4400,-49.8400,-92.7400,-15.3900,-6.9800,-2.0000,0.0000,0.0000,-0.0000,1500.0000,1500.0000,1500.0000,1470.0000
228648.8470,3.0000,1440.0000,1500.0000,1500.0000,7.0000,12.0000,20.0000,305.0000,-126.0000,893.0000,0.4476,-0.0509,-0.1731,0.8758,123.1700,-49.9700,-92.7800,-15.3500,-6.9800,-1.9100,0.0000,0.0000,-0.0000,1500.0000,1500.0000,1500.0000,1470.0000
228665.3600,3.0000,1440.0000,1500.0000,1500.0000,4.0000,12.0000,20.0000,323.0000,-21.0000,763.0000,0.4451,-0.0530,-0.1717,0.8772,122.9200,-50.0900,-92.8100,-15.3200,-6.9900,-1.8100,0.0000,0.0000,-0.0000,1500.0000,1500.0000,1500.0000,1470.0000
228682.0090,3.0000,1440.0000,1500.0000,1500.0000,7.0000,12.0000,19.0000,295.0000,-35.0000,764.0000,0.4427,-0.0549,-0.1706,0.8786,122.6600,-50.2200,-92.8400,-15.2900,-6.9900,-1.6900,0.0000,0.0000,-0.0000,1500.0000,1500.0000,1500.0000,1470.0000
228698.6970,3.0000,1440.0000,1500.0000,1500.0000,10.0000,12.0000,18.0000,207.0000,-99.0000,818.0000,0.4404,-0.0565,-0.1690,0.8799,122.4100,-50.3400,-92.8700,-15.2500,-6.9800,-1.5700,0.0000,0.0000,-0.0000,1500.0000,1498.0000,1500.0000,1470.0000
228715.3830,3.0000,1440.0000,1500.0000,1500.0000,7.0000,12.0000,18.0000,221.0000,-168.0000,1007.0000,0.4383,-0.0580,-0.1674,0.8812,122.4100,-50.3400,-92.8700,-15.2500,-6.9800,-1.5700,0.0000,0.0000,-0.0000,1500.0000,1498.0000,1500.0000,1470.0000
228732.0650,3.0000,1440.0000,1500.0000,1500.0000,8.0000,13.0000,19.0000,313.0000,-184.0000,1031.0000,0.4361,-0.0598,-0.1659,0.8824,122.1700,-50.4500,-92.9000,-15.2000,-6.9700,-1.4700,0.0000,0.0000,-0.0000,1500.0000,1500.0000,1500.0000,1470.0000
228748.4890,3.0000,1440.0000,1500.0000,1500.0000,8.0000,13.0000,19.0000,364.0000,-174.0000,780.0000,0.4339,-0.0615,-0.1643,0.8837,121.9400,-50.5700,-92.9300,-15.1500,-6.9700,-1.3700,0.0000,0.0000,-0.0000,1500.0000,1498.0000,1500.0000,1470.0000
228765.1460,3.0000,1440.0000,1500.0000,1500.0000,6.0000,14.0000,18.0000,324.0000,32.0000,427.0000,0.4317,-0.0634,-0.1628,0.8849,121.7100,-50.6800,-92.9500,-15.1000,-6.9700,-1.2600,0.0000,0.0000,-0.0000,1500.0000,1500.0000,1500.0000,1470.0000
228781.6990,3.0000,1440.0000,1500.0000,1500.0000,0.0000,13.0000,14.0000,261.0000,95.0000,268.0000,0.4298,-0.0653,-0.1618,0.8859,121.4900,-50.7900,-92.9700,-15.0500,-6.9600,-1.1000,0.0000,0.0000,-0.0000,1500.0000,1500.0000,1500.0000,1470.0000
228798.4740,3.0000,1440.0000,1500.0000,1500.0000,-5.0000,13.0000,9.0000,248.0000,185.0000,376.0000,0.4284,-0.0675,-0.1614,0.8865,121.2700,-50.9000,-92.9900,-14.9900,-6.9500,-0.9400,0.0000,0.0000,-0.0000,1498.0000,1498.0000,1500.0000,1470.0000
228815.0850,3.0000,1440.0000,1500.0000,1500.0000,-7.0000,13.0000,6.0000,191.0000,78.0000,527.0000,0.4275,-0.0698,-0.1615,0.8867,121.2700,-50.9000,-92.9900,-14.9900,-6.9500,-0.9400,0.0000,0.0000,-0.0000,1498.0000,1500.0000,1500.0000,1470.0000
228831.7470,2.0000,1440.0000,1500.0000,1500.0000,-7.0000,14.0000,3.0000,212.0000,-3.0000,703.0000,0.4270,-0.0721,-0.1617,0.8868,121.0500,-51.0100,-93.0100,-14.9400,-6.9300,-0.7900,0.0000,0.0000,-0.0000,1498.0000,1500.0000,1500.0000,1470.0000
228848.5610,2.0000,1998.0000,2000.0000,1155.0000,-6.0000,15.0000,1.0000,242.0000,-21.0000,921.0000,0.4269,-0.0744,-0.1617,0.8866,120.8400,-51.1100,-93.0200,-14.8800,-6.9000,-0.6600,0.0000,0.0000,-0.0000,1354.0000,1991.0000,1500.0000,1999.0000
228865.7100,2.0000,1998.0000,2000.0000,1155.0000,-8.0000,19.0000,-1.0000,286.0000,28.0000,1248.0000,0.4270,-0.0768,-0.1612,0.8864,120.6400,-51.2100,-93.0300,-14.8300,-6.8800,-0.5600,0.0000,0.0000,-0.0000,1354.0000,1991.0000,1500.0000,1999.0000
228882.6420,2.0000,1998.0000,2000.0000,1155.0000,-13.0000,37.0000,-4.0000,679.0000,-7.0000,1970.0000,0.4278,-0.0811,-0.1605,0.8858,120.4500,-51.3100,-93.0400,-14.8000,-6.8500,-0.4900,0.0000,0.0000,-0.0000,1354.0000,1991.0000,1500.0000,1999.0000
228899.6690,2.0000,1998.0000,2000.0000,1155.0000,-13.0000,82.0000,0.0000,1396.0000,-516.0000,3314.0000,0.4290,-0.0894,-0.1587,0.8848,120.2600,-51.4000,-93.0500,-14.8100,-6.8600,-0.5300,0.0000,0.0000,-0.0000,1354.0000,1991.0000,1500.0000,1999.0000
228916.5110,2.0000,1998.0000,2000.0000,1238.0000,-16.0000,138.0000,1.0000,1441.0000,-436.0000,3525.0000,0.4310,-0.1047,-0.1535,0.8830,120.2600,-51.4000,-93.0500,-14.8100,-6.8600,-0.5300,0.0000,0.0000,-0.0000,1269.0000,1991.0000,1500.0000,1999.0000
228933.1920,2.0000,1998.0000,2000.0000,1240.0000,-27.0000,212.0000,0.0000,1610.0000,-409.0000,2731.0000,0.4340,-0.1290,-0.1454,0.8797,120.0900,-51.4800,-93.0600,-14.8500,-6.9000,-0.6600,0.0000,0.0000,-0.0000,1269.0000,1991.0000,1500.0000,1999.0000
228949.6950,2.0000,1998.0000,2000.0000,1240.0000,-31.0000,273.0000,0.0000,1721.0000,-187.0000,441.0000,0.4379,-0.1617,-0.1337,0.8742,119.9200,-51.5700,-93.0700,-14.8900,-6.9700,-0.7200,0.0000,0.0000,-0.0000,1269.0000,1991.0000,1500.0000,1999.0000
228966.4920,2.0000,1998.0000,2000.0000,1240.0000,-43.0000,317.0000,-1.0000,1765.0000,-23.0000,-2414.0000,0.4419,-0.2018,-0.1194,0.8659,119.5500,-51.7500,-93.0900,-15.0800,-7.1500,-0.5500,0.0000,0.0000,-0.0000,1269.0000,1991.0000,1500.0000,1999.0000
228983.5010,2.0000,1998.0000,2000.0000,1240.0000,-59.0000,333.0000,-4.0000,1891.0000,326.0000,-5391.0000,0.4453,-0.2469,-0.1046,0.8543,119.1900,-51.9400,-93.1100,-15.1400,-7.3200,-0.1800,0.0000,0.0000,-0.0000,1269.0000,1991.0000,1500.0000,1999.0000
229000.3970,2.0000,1998.0000,2000.0000,1240.0000,-74.0000,311.0000,-6.0000,1645.0000,220.0000,-7798.0000,0.4475,-0.2916,-0.0919,0.8404,118.8300,-52.1200,-93.1300,-15.0100,-7.4100,0.3600,0.0000,0.0000,-0.0000,1269.0000,1991.0000,1500.0000,1999.0000
229016.8970,2.0000,1998.0000,2000.0000,1240.0000,-89.0000,273.0000,-11.0000,1629.0000,124.0000,-8905.0000,0.4479,-0.3321,-0.0833,0.8259,118.8300,-52.1200,-93.1300,-15.0100,-7.4100,0.3600,0.0000,0.0000,-0.0000,1269.0000,1991.0000,1500.0000,1999.0000
229033.7240,2.0000,1603.0000,1407.0000,2000.0000,-92.0000,225.0000,-20.0000,1355.0000,257.0000,-8919.0000,0.4473,-0.3677,-0.0789,0.8115,118.4900,-52.3000,-93.1700,-14.7100,-7.4200,1.0500,0.0000,0.0000,-0.0000,1166.0000,1064.0000,1500.0000,1621.0000
229050.3540,2.0000,1599.0000,1398.0000,2000.0000,-94.0000,184.0000,-28.0000,1013.0000,76.0000,-8496.0000,0.4464,-0.3969,-0.0785,0.7982,118.1700,-52.4700,-93.1900,-14.3500,-7.3500,1.7700,0.0000,0.0000,-0.0000,1166.0000,1064.0000,1500.0000,1621.0000
229067.0490,2.0000,1599.0000,1398.0000,2000.0000,-97.0000,136.0000,-36.0000,1121.0000,56.0000,-7687.0000,0.4453,-0.4211,-0.0815,0.7860,117.8000,-52.6700,-93.2000,-14.0900,-7.2800,2.4500,0.0000,0.0000,-0.0000,1166.0000,1064.0000,1500.0000,1621.0000
229084.2290,2.0000,1599.0000,1398.0000,2000.0000,-106.0000,83.0000,-45.0000,1150.0000,29.0000,-7416.0000,0.4439,-0.4399,-0.0892,0.7755,117.4600,-52.8500,-93.2000,-13.8400,-7.2300,3.0500,0.0000,0.0000,-0.0000,1166.0000,1064.0000,1500.0000,1621.0000
229101.1280,2.0000,1599.0000,1398.0000,2000.0000,-115.0000,5.0000,-53.0000,746.0000,161.0000,-7709.0000,0.4421,-0.4516,-0.1024,0.7682,117.4600,-52.8500,-93.2000,-13.8400,-7.2300,3.0500,0.0000,0.0000,-0.0000,1166.0000,1064.0000,1500.0000,1621.0000
229117.7780,2.0000,1599.0000,1398.0000,2000.0000,-125.0000,-71.0000,-54.0000,357.0000,94.0000,-7498.0000,0.4388,-0.4546,-0.1219,0.7655,117.1400,-53.0100,-93.2000,-13.5700,-7.1500,3.6100,0.0000,0.0000,-0.0000,1166.0000,1064.0000,1500.0000,1621.0000
229134.8770,2.0000,1997.0000,1117.0000,1989.0000,-139.0000,-136.0000,-51.0000,364.0000,51.0000,-6478.0000,0.4331,-0.4502,-0.1477,0.7667,116.8500,-53.1700,-93.1800,-13.2600,-7.0600,4.1500,0.0000,0.0000,-0.0000,1446.0000,1064.0000,1500.0000,1999.0000
229151.5570,2.0000,1998.0000,1117.0000,1989.0000,-155.0000,-203.0000,-51.0000,377.0000,-99.0000,-4221.0000,0.4247,-0.4383,-0.1787,0.7717,116.5600,-53.3300,-93.1500,-13.0100,-7.0100,4.6300,0.0000,0.0000,-0.0000,1446.0000,1064.0000,1500.0000,1999.0000
229168.5940,2.0000,1998.0000,1117.0000,1989.0000,-175.0000,-237.0000,-45.0000,331.0000,-357.0000,-1292.0000,0.4125,-0.4216,-0.2148,0.7784,116.2300,-53.5000,-93.1200,-12.9600,-7.0700,4.9600,0.0000,0.0000,-0.0000,1446.0000,1064.0000,1500.0000,1999.0000
229185.5550,2.0000,1998.0000,1117.0000,1989.0000,-163.0000,-258.0000,-40.0000,689.0000,-545.0000,1368.0000,0.3980,-0.4018,-0.2523,0.7851,115.9100,-53.6800,-93.0900,-13.1900,-7.1800,5.2000,0.0000,0.0000,-0.0000,1446.0000,1064.0000,1500.0000,1999.0000
229202.4690,2.0000,1998.0000,1117.0000,1989.0000,-124.0000,-276.0000,-39.0000,1083.0000,-830.0000,4081.0000,0.3832,-0.3772,-0.2870,0.7928,115.9100,-53.6800,-93.0900,-13.1900,-7.1800,5.2000,0.0000,0.0000,-0.0000,1446.0000,1064.0000,1500.0000,1999.0000
229218.9950,2.0000,1998.0000,1117.0000,1989.0000,-89.0000,-278.0000,-37.0000,1533.0000,-887.0000,6851.0000,0.3696,-0.3490,-0.3163,0.8009,115.5800,-53.8500,-93.0600,-13.6900,-7.2900,5.3600,0.0000,0.0000,-0.0000,1446.0000,1064.0000,1500.0000,1999.0000
229236.0100,2.0000,1998.0000,1204.0000,2000.0000,-72.0000,-273.0000,-32.0000,1973.0000,-908.0000,8962.0000,0.3563,-0.3189,-0.3425,0.8087,115.2600,-54.0200,-93.0200,-14.4200,-7.3400,5.4400,0.0000,0.0000,-0.0000,1368.0000,1074.0000,1500.0000,1999.0000
229252.7680,2.0000,1998.0000,1205.0000,2000.0000,-49.0000,-258.0000,-22.0000,2373.0000,-1079.0000,10775.0000,0.3431,-0.2892,-0.3644,0.8160,114.9200,-54.1800,-92.9600,-15.2300,-7.2700,5.3900,0.0000,0.0000,-0.0000,1368.0000,1074.0000,1500.0000,1999.0000
229269.4820,2.0000,1998.0000,1205.0000,2000.0000,-33.0000,-232.0000,-11.0000,2414.0000,-1238.0000,12088.0000,0.3303,-0.2611,-0.3821,0.8227,114.5000,-54.3800,-92.8800,-16.0400,-7.0800,5.1700,0.0000,0.0000,-0.0000,1368.0000,1074.0000,1500.0000,1999.0000
229286.2330,2.0000,1998.0000,1205.0000,2000.0000,-31.0000,-191.0000,2.0000,2090.0000,-1154.0000,12126.0000,0.3179,-0.2371,-0.3960,0.8282,114.1000,-54.5500,-92.8000,-16.7600,-6.7700,4.8200,0.0000,0.0000,-0.0000,1368.0000,1074.0000,1500.0000,1999.0000
229303.2560,2.0000,1998.0000,1205.0000,2000.0000,-26.0000,-153.0000,16.0000,1872.0000,-1155.0000,11633.0000,0.3058,-0.2182,-0.4072,0.8325,114.1000,-54.5500,-92.8000,-16.7600,-6.7700,4.8200,0.0000,0.0000,-0.0000,1368.0000,1074.0000,1500.0000,1999.0000
229320.0470,2.0000,1997.0000,1166.0000,2000.0000,-6.0000,-117.0000,25.0000,1819.0000,-876.0000,10775.0000,0.2950,-0.2040,-0.4143,0.8365,113.7200,-54.7100,-92.7100,-17.3300,-6.4100,4.4100,0.0000,0.0000,-0.0000,1410.0000,1074.0000,1500.0000,1998.0000
229336.9150,2.0000,1997.0000,1163.0000,2000.0000,8.0000,-91.0000,32.0000,2152.0000,-856.0000,10325.0000,0.2854,-0.1929,-0.4178,0.8407,113.3500,-54.8400,-92.6200,-17.7800,-6.0500,4.0300,0.0000,0.0000,-0.0000,1410.0000,1074.0000,1500.0000,1998.0000
229353.5140,2.0000,1997.0000,1163.0000,2000.0000,18.0000,-62.0000,41.0000,2303.0000,-986.0000,9305.0000,0.2772,-0.1861,-0.4182,0.8448,112.9900,-54.9700,-92.5300,-18.1500,-5.7400,3.6800,0.0000,0.0000,-0.0000,1410.0000,1074.0000,1500.0000,1998.0000
229370.2950,2.0000,1997.0000,1163.0000,2000.0000,28.0000,-43.0000,51.0000,2017.0000,-958.0000,8650.0000,0.2694,-0.1815,-0.4158,0.8495,112.5700,-55.1200,-92.4500,-18.4100,-5.5500,3.3700,0.0000,0.0000,-0.0000,1410.0000,1074.0000,1500.0000,1998.0000
229387.7030,2.0000,1997.0000,1163.0000,2000.0000,16.0000,-13.0000,59.0000,1439.0000,-927.0000,8234.0000,0.2615,-0.1804,-0.4124,0.8538,112.1800,-55.2500,-92.3700,-18.5700,-5.3600,3.0900,0.0000,0.0000,-0.0000,1410.0000,1074.0000,1500.0000,1998.0000
229404.7640,2.0000,1997.0000,1163.0000,2000.0000,9.0000,3.0000,67.0000,1287.0000,-764.0000,7378.0000,0.2540,-0.1836,-0.4092,0.8569,112.1800,-55.2500,-92.3700,-18.5700,-5.3600,3.0900,0.0000,0.0000,-0.0000,1410.0000,1074.0000,1500.0000,1998.0000
229421.3480,2.0000,1997.0000,1163.0000,2000.0000,-1.0000,18.0000,73.0000,1108.0000,-464.0000,6125.0000,0.2464,-0.1892,-0.4063,0.8593,111.8000,-55.3700,-92.2900,-18.6500,-5.1900,2.8300,0.0000,0.0000,-0.0000,1410.0000,1074.0000,1500.0000,1998.0000
229438.0290,2.0000,1817.0000,1378.0000,2000.0000,-14.0000,21.0000,79.0000,1069.0000,-387.0000,5311.0000,0.2383,-0.1968,-0.4043,0.8608,111.4300,-55.4900,-92.2100,-18.6200,-5.0800,2.6800,0.0000,0.0000,-0.0000,1186.0000,1064.0000,1500.0000,1828.0000
229454.6150,2.0000,1817.0000,1378.0000,2000.0000,-31.0000,19.0000,83.0000,1219.0000,-278.0000,4629.0000,0.2291,-0.2051,-0.4040,0.8615,111.0700,-55.6000,-92.1400,-18.5800,-5.0300,2.6000,0.0000,0.0000,-0.0000,1186.0000,1064.0000,1500.0000,1828.0000
229471.5560,2.0000,1817.0000,1378.0000,2000.0000,-45.0000,5.0000,81.0000,1075.0000,112.0000,3761.0000,0.2186,-0.2131,-0.4058,0.8615,110.6800,-55.7300,-92.0600,-18.6100,-5.0300,2.5800,0.0000,0.0000,-0.0000,1186.0000,1064.0000,1500.0000,1828.0000
229488.5440,2.0000,1817.0000,1378.0000,2000.0000,-64.0000,-14.0000,79.0000,854.0000,214.0000,3218.0000,0.2068,-0.2193,-0.4102,0.8608,110.3000,-55.8600,-91.9900,-18.5700,-5.0500,2.6400,0.0000,0.0000,-0.0000,1186.0000,1064.0000,1500.0000,1828.0000
229505.1940,2.0000,1817.0000,1378.0000,2000.0000,-89.0000,-34.0000,78.0000,829.0000,194.0000,3242.0000,0.1935,-0.2234,-0.4175,0.8593,110.3000,-55.8600,-91.9900,-18.5700,-5.0500,2.6400,0.0000,0.0000,-0.0000,1186.0000,1064.0000,1500.0000,1828.0000
229521.8730,2.0000,1817.0000,1378.0000,2000.0000,-102.0000,-60.0000,73.0000,582.0000,264.0000,2896.0000,0.1785,-0.2251,-0.4283,0.8568,109.9400,-55.9800,-91.9100,-18.4600,-5.0800,2.7200,0.0000,0.0000,-0.0000,1186.0000,1064.0000,1500.0000,1828.0000
229538.8190,2.0000,1935.0000,1075.0000,1943.0000,-124.0000,-82.0000,66.0000,636.0000,413.0000,3538.0000,0.1619,-0.2238,-0.4421,0.8534,109.5800,-56.1100,-91.8300,-18.3800,-5.1000,2.8100,0.0000,0.0000,-0.0000,1490.0000,1066.0000,1500.0000,1939.0000
229555.8770,2.0000,1935.0000,1075.0000,1943.0000,-140.0000,-101.0000,55.0000,593.0000,201.0000,4180.0000,0.1444,-0.2196,-0.4587,0.8488,109.1800,-56.2500,-91.7500,-18.4700,-5.0800,2.8900,0.0000,0.0000,-0.0000,1490.0000,1066.0000,1500.0000,1939.0000
229572.6440,2.0000,1935.0000,1075.0000,1943.0000,-139.0000,-125.0000,44.0000,734.0000,131.0000,4671.0000,0.1268,-0.2121,-0.4767,0.8436,108.8100,-56.3800,-91.6700,-18.5600,-5.0000,2.9300,0.0000,0.0000,-0.0000,1490.0000,1066.0000,1500.0000,1939.0000
229589.3180,2.0000,1935.0000,1075.0000,1943.0000,-120.0000,-142.0000,30.0000,961.0000,236.0000,5324.0000,0.1097,-0.2009,-0.4936,0.8390,108.4400,-56.5100,-91.5800,-18.6500,-4.8700,2.9700,0.0000,0.0000,-0.0000,1490.0000,1066.0000,1500.0000,1939.0000
229606.2870,2.0000,1935.0000,1075.0000,1943.0000,-93.0000,-155.0000,13.0000,1254.0000,130.0000,6545.0000,0.0934,-0.1858,-0.5085,0.8356,108.4400,-56.5100,-91.5800,-18.6500,-4.8700,2.9700,0.0000,0.0000,-0.0000,1490.0000,1066.0000,1500.0000,1939.0000
229622.9930,2.0000,1935.0000,1075.0000,1943.0000,-73.0000,-157.0000,1.0000,1495.0000,-61.0000,7787.0000,0.0794,-0.1688,-0.5201,0.8335,108.0900,-56.6300,-91.5000,-18.7600,-4.6700,3.0000,0.0000,0.0000,-0.0000,1490.0000,1066.0000,1500.0000,1939.0000
229639.6620,2.0000,1943.0000,1207.0000,2000.0000,-63.0000,-161.0000,-7.0000,1643.0000,-284.0000,8666.0000,0.0667,-0.1504,-0.5300,0.8319,107.7300,-56.7500,-91.4100,-18.9800,-4.3000,2.9600,0.0000,0.0000,-0.0000,1380.0000,1089.0000,1500.0000,1948.0000
229656.4150,2.0000,1944.0000,1208.0000,2000.0000,-60.0000,-157.0000,-10.0000,1674.0000,-213.0000,8892.0000,0.0549,-0.1316,-0.5390,0.8301,107.3100,-56.8600,-91.3300,-19.4200,-3.6900,2.8700,0.0000,0.0000,-0.0000,1380.0000,1089.0000,1500.0000,1948.0000
229673.3830,2.0000,1944.0000,1208.0000,2000.0000,-62.0000,-143.0000,-13.0000,1769.0000,-243.0000,9411.0000,0.0440,-0.1131,-0.5477,0.8279,106.9000,-56.9600,-91.2400,-19.7700,-3.0800,2.7900,0.0000,0.0000,-0.0000,1380.0000,1089.0000,1500.0000,1948.0000
229690.4700,2.0000,1944.0000,1208.0000,2000.0000,-63.0000,-131.0000,-9.0000,1803.0000,-369.0000,9816.0000,0.0339,-0.0963,-0.5562,0.8248,106.5100,-57.0300,-91.1600,-20.0600,-2.4400,2.6800,0.0000,0.0000,-0.0000,1380.0000,1089.0000,1500.0000,1948.0000
229707.1440,2.0000,1944.0000,1208.0000,2000.0000,-66.0000,-109.0000,-6.0000,1836.0000,-644.0000,10033.0000,0.0249,-0.0820,-0.5645,0.8210,106.5100,-57.0300,-91.1600,-20.0600,-2.4400,2.6800,0.0000,0.0000,-0.0000,1380.0000,1089.0000,1500.0000,1948.0000
229723.9650,2.0000,1235.0000,1478.0000,2000.0000,-59.0000,-94.0000,1.0000,1658.0000,-548.0000,9562.0000,0.0169,-0.0705,-0.5721,0.8169,106.1200,-57.1000,-91.0800,-20.3000,-1.8000,2.5400,0.0000,0.0000,-0.0000,1097.0000,1076.0000,1500.0000,1276.0000
229740.6660,2.0000,1235.0000,1479.0000,2000.0000,-54.0000,-71.0000,8.0000,1452.0000,-680.0000,9305.0000,0.0095,-0.0614,-0.5790,0.8129,105.7200,-57.1400,-91.0000,-20.5000,-1.1400,2.4100,0.0000,0.0000,-0.0000,1097.0000,1076.0000,1500.0000,1276.0000
229757.5980,2.0000,1235.0000,1479.0000,2000.0000,-58.0000,-49.0000,18.0000,1032.0000,-890.0000,9025.0000,0.0030,-0.0558,-0.5855,0.8087,105.2800,-57.1800,-90.9300,-20.7600,-0.4200,2.2900,0.0000,0.0000,-0.0000,1097.0000,1076.0000,1500.0000,1276.0000
229774.5400,2.0000,1235.0000,1479.0000,2000.0000,-66.0000,-17.0000,27.0000,431.0000,-712.0000,7700.0000,-0.0024,-0.0540,-0.5927,0.8036,104.8600,-57.2000,-90.8600,-20.9100,0.2100,2.1800,0.0000,0.0000,-0.0000,1097.0000,1076.0000,1500.0000,1276.0000
229791.8090,2.0000,1235.0000,1479.0000,2000.0000,-80.0000,1.0000,38.0000,0.0000,-407.0000,6036.0000,-0.0071,-0.0562,-0.6011,0.7971,104.4400,-57.2100,-90.7900,-20.9500,0.6800,2.1200,0.0000,0.0000,-0.0000,1097.0000,1076.0000,1500.0000,1276.0000
229808.5660,2.0000,1235.0000,1479.0000,2000.0000,-89.0000,3.0000,47.0000,-130.0000,-388.0000,4810.0000,-0.0122,-0.0604,-0.6105,0.7896,104.4400,-57.2100,-90.7900,-20.9500,0.6800,2.1200,0.0000,0.0000,-0.0000,1097.0000,1076.0000,1500.0000,1276.0000
229825.1410,2.0000,1235.0000,1479.0000,2000.0000,-102.0000,-4.0000,54.0000,-116.0000,-336.0000,3965.0000,-0.0182,-0.0652,-0.6208,0.7810,104.0300,-57.2100,-90.7300,-20.9300,0.9900,2.1200,0.0000,0.0000,-0.0000,1097.0000,1076.0000,1500.0000,1276.0000
229842.1800,2.0000,1421.0000,1000.0000,1499.0000,-120.0000,-17.0000,62.0000,-194.0000,-251.0000,3465.0000,-0.0266,-0.0695,-0.6331,0.7705,103.6300,-57.2000,-90.6700,-20.9200,1.2600,2.1800,0.0000,0.0000,-0.0000,1962.0000,1041.0000,1500.0000,1452.0000
229858.7610,2.0000,1421.0000,1000.0000,1498.0000,-139.0000,-34.0000,68.0000,-303.0000,-178.0000,3207.0000,-0.0372,-0.0724,-0.6466,0.7585,103.1800,-57.1800,-90.6100,-20.9400,1.6200,2.2600,0.0000,0.0000,-0.0000,1962.0000,1041.0000,1500.0000,1452.0000
229875.5290,2.0000,1421.0000,1000.0000,1498.0000,-140.0000,-52.0000,69.0000,-289.0000,-147.0000,2999.0000,-0.0501,-0.0738,-0.6612,0.7449,102.7500,-57.1500,-90.5600,-20.9300,1.9400,2.3800,0.0000,0.0000,-0.0000,1962.0000,1041.0000,1500.0000,1452.0000
229892.1520,2.0000,1421.0000,1000.0000,1498.0000,-103.0000,-72.0000,63.0000,-290.0000,-183.0000,2985.0000,-0.0643,-0.0728,-0.6730,0.7332,102.3300,-57.1100,-90.5000,-20.9000,2.2200,2.5100,0.0000,0.0000,-0.0000,1962.0000,1041.0000,1500.0000,1452.0000
229908.8350,2.0000,1421.0000,1000.0000,1498.0000,-50.0000,-91.0000,50.0000,-267.0000,-37.0000,3270.0000,-0.0791,-0.0691,-0.6798,0.7258,102.3300,-57.1100,-90.5000,-20.9000,2.2200,2.5100,0.0000,0.0000,-0.0000,1962.0000,1041.0000,1500.0000,1452.0000
229925.7840,2.0000,1421.0000,1000.0000,1495.0000,3.0000,-106.0000,33.0000,-200.0000,110.0000,3772.0000,-0.0935,-0.0626,-0.6804,0.7242,101.9200,-57.0700,-90.4400,-20.8600,2.5100,2.6600,0.0000,0.0000,-0.0000,1966.0000,1040.0000,1500.0000,1453.0000
229942.6310,2.0000,1422.0000,1000.0000,1495.0000,43.0000,-114.0000,19.0000,-88.0000,-50.0000,4268.0000,-0.1070,-0.0538,-0.6760,0.7271,101.5000,-57.0300,-90.3800,-20.8300,2.8800,2.8200,0.0000,0.0000,-0.0000,1966.0000,1040.0000,1500.0000,1453.0000
229959.4360,2.0000,1422.0000,1000.0000,1495.0000,71.0000,-117.0000,10.0000,8.0000,-144.0000,4919.0000,-0.1194,-0.0439,-0.6679,0.7333,101.0600,-56.9600,-90.3200,-20.8300,3.4200,2.9700,0.0000,0.0000,-0.0000,1966.0000,1040.0000,1500.0000,1453.0000
229976.0500,2.0000,1422.0000,1000.0000,1495.0000,86.0000,-117.0000,3.0000,101.0000,-138.0000,5477.0000,-0.1307,-0.0335,-0.6573,0.7414,100.6300,-56.8800,-90.2600,-20.8100,4.0000,3.0900,0.0000,0.0000,-0.0000,1966.0000,1040.0000,1500.0000,1453.0000
229993.0070,2.0000,1422.0000,1000.0000,1495.0000,95.0000,-110.0000,-4.0000,146.0000,-147.0000,5851.0000,-0.1411,-0.0229,-0.6449,0.7508,100.6300,-56.8800,-90.2600,-20.8100,4.0000,3.0900,0.0000,0.0000,-0.0000,1966.0000,1040.0000,1500.0000,1453.0000
230009.7320,2.0000,1422.0000,1000.0000,1495.0000,102.0000,-105.0000,-8.0000,132.0000,-250.0000,6029.0000,-0.1500,-0.0127,-0.6318,0.7604,100.2100,-56.7900,-90.1900,-20.7700,4.6000,3.1800,0.0000,0.0000,-0.0000,1966.0000,1040.0000,1500.0000,1453.0000
230026.4330,2.0000,1422.0000,1000.0000,1495.0000,105.0000,-99.0000,-11.0000,177.0000,-204.0000,6225.0000,-0.1581,-0.0027,-0.6179,0.7702,99.8000,-56.7000,-90.1300,-20.7100,5.2000,3.2400,0.0000,0.0000,-0.0000,1966.0000,1040.0000,1500.0000,1453.0000
230043.1690,2.0000,1224.0000,1572.0000,2000.0000,108.0000,-93.0000,-14.0000,234.0000,-215.0000,6236.0000,-0.1651,0.0066,-0.6037,0.7799,99.3800,-56.5800,-90.0600,-20.6400,5.8100,3.2700,0.0000,0.0000,-0.0000,1012.0000,1084.0000,1500.0000,1266.0000
230060.2710,2.0000,1224.0000,1572.0000,2000.0000,109.0000,-85.0000,-15.0000,190.0000,-307.0000,6086.0000,-0.1716,0.0157,-0.5888,0.7897,98.9500,-56.4500,-89.9900,-20.6100,6.4400,3.2700,0.0000,0.0000,-0.0000,1012.0000,1084.0000,1500.0000,1266.0000
230076.9090,2.0000,1224.0000,1572.0000,2000.0000,94.0000,-83.0000,-12.0000,127.0000,-358.0000,5780.0000,-0.1774,0.0240,-0.5747,0.7985,98.5200,-56.3100,-89.9300,-20.5500,7.0200,3.2500,0.0000,0.0000,-0.0000,1012.0000,1084.0000,1500.0000,1266.0000
230094.0390,2.0000,1224.0000,1572.0000,2000.0000,50.0000,-82.0000,-4.0000,50.0000,-280.0000,5634.0000,-0.1836,0.0327,-0.5637,0.8046,98.5200,-56.3100,-89.9300,-20.5500,7.0200,3.2500,0.0000,0.0000,-0.0000,1012.0000,1084.0000,1500.0000,1266.0000
230110.8570,2.0000,1224.0000,1572.0000,2000.0000,-5.0000,-85.0000,9.0000,2.0000,-342.0000,5539.0000,-0.1906,0.0417,-0.5587,0.8061,98.1100,-56.1600,-89.8700,-20.4800,7.5200,3.2100,0.0000,0.0000,-0.0000,1012.0000,1084.0000,1500.0000,1266.0000
230127.7670,2.0000,1224.0000,1572.0000,2000.0000,-60.0000,-81.0000,25.0000,-68.0000,-463.0000,5685.0000,-0.1990,0.0508,-0.5605,0.8023,97.7100,-56.0000,-89.8100,-20.3900,7.9800,3.1700,0.0000,0.0000,-0.0000,1012.0000,1084.0000,1500.0000,1266.0000
230144.4550,2.0000,1224.0000,1572.0000,2000.0000,-103.0000,-73.0000,40.0000,-98.0000,-453.0000,5790.0000,-0.2083,0.0595,-0.5681,0.7939,97.2900,-55.8300,-89.7500,-20.2800,8.4700,3.1100,0.0000,0.0000,-0.0000,1012.0000,1084.0000,1500.0000,1266.0000
230161.3490,2.0000,1224.0000,1572.0000,2000.0000,-135.0000,-65.0000,51.0000,-121.0000,-427.0000,5741.0000,-0.2179,0.0672,-0.5805,0.7817,96.8600,-55.6400,-89.6900,-20.1400,9.0100,3.0500,0.0000,0.0000,-0.0000,1012.0000,1084.0000,1500.0000,1266.0000
230178.3180,2.0000,1224.0000,1572.0000,2000.0000,-158.0000,-57.0000,60.0000,-136.0000,-371.0000,5471.0000,-0.2274,0.0739,-0.5961,0.7665,96.4500,-55.4400,-89.6300,-19.9900,9.5000,3.0300,0.0000,0.0000,-0.0000,1012.0000,1084.0000,1500.0000,1266.0000
230195.1620,2.0000,1224.0000,1572.0000,2000.0000,-170.0000,-52.0000,66.0000,-152.0000,-303.0000,5096.0000,-0.2370,0.0797,-0.6134,0.7491,96.4500,-55.4400,-89.6300,-19.9900,9.5000,3.0300,0.0000,0.0000,-0.0000,1012.0000,1084.0000,1500.0000,1266.0000
230211.9550,2.0000,1423.0000,1000.0000,1500.0000,-175.0000,-50.0000,71.0000,-222.0000,-263.0000,4755.0000,-0.2467,0.0848,-0.6312,0.7305,96.0500,-55.2400,-89.5800,-19.8300,9.9500,3.0500,0.0000,0.0000,-0.0000,1965.0000,1040.0000,1500.0000,1456.0000
230228.8580,2.0000,1425.0000,1000.0000,1496.0000,-178.0000,-47.0000,75.0000,-282.0000,-152.0000,4354.0000,-0.2563,0.0891,-0.6491,0.7107,95.6500,-55.0300,-89.5200,-19.6700,10.3400,3.1000,0.0000,0.0000,-0.0000,1965.0000,1040.0000,1500.0000,1456.0000
230245.5140,2.0000,1425.0000,1000.0000,1496.0000,-182.0000,-46.0000,80.0000,-233.0000,-140.0000,4065.0000,-0.2657,0.0929,-0.6668,0.6900,95.2600,-54.8200,-89.4700,-19.5000,10.7200,3.2000,0.0000,0.0000,-0.0000,1965.0000,1040.0000,1500.0000,1456.0000
230262.2710,2.0000,1425.0000,1000.0000,1496.0000,-161.0000,-54.0000,78.0000,-129.0000,-200.0000,3503.0000,-0.2754,0.0963,-0.6833,0.6693,94.8500,-54.5800,-89.4100,-19.3400,11.1100,3.3300,0.0000,0.0000,-0.0000,1965.0000,1040.0000,1500.0000,1456.0000
230279.2530,2.0000,1425.0000,1000.0000,1496.0000,-108.0000,-70.0000,72.0000,-52.0000,-218.0000,3191.0000,-0.2864,0.0996,-0.6952,0.6518,94.4500,-54.3400,-89.3500,-19.2100,11.4300,3.4700,0.0000,0.0000,-0.0000,1965.0000,1040.0000,1500.0000,1456.0000
230296.5830,2.0000,1425.0000,1000.0000,1496.0000,-48.0000,-85.0000,60.0000,-59.0000,-178.0000,3175.0000,-0.2995,0.1032,-0.7004,0.6396,94.4500,-54.3400,-89.3500,-19.2100,11.4300,3.4700,0.0000,0.0000,-0.0000,1965.0000,1040.0000,1500.0000,1456.0000
230313.2950,2.0000,1425.0000,1000.0000,1496.0000,7.0000,-99.0000,45.0000,-9.0000,-52.0000,3338.0000,-0.3133,0.1072,-0.6989,0.6339,94.0600,-54.1000,-89.2900,-19.0800,11.7200,3.6300,0.0000,0.0000,-0.0000,1965.0000,1040.0000,1500.0000,1456.0000
230330.2450,2.0000,1425.0000,1000.0000,1496.0000,44.0000,-109.0000,33.0000,-16.0000,-16.0000,3669.0000,-0.3279,0.1116,-0.6920,0.6334,93.6800,-53.8500,-89.2200,-18.9400,12.0000,3.8100,0.0000,0.0000,-0.0000,1965.0000,1040.0000,1500.0000,1456.0000
230346.8190,2.0000,1458.0000,1000.0000,1501.0000,72.0000,-114.0000,26.0000,34.0000,-178.0000,4144.0000,-0.3426,0.1160,-0.6816,0.6361,93.2900,-53.6000,-89.1600,-18.7500,12.3200,3.9900,0.0000,0.0000,-0.0000,1956.0000,1044.0000,1500.0000,1487.0000
230363.6360,2.0000,1458.0000,1000.0000,1501.0000,83.0000,-115.0000,20.0000,131.0000,-73.0000,4636.0000,-0.3573,0.1202,-0.6689,0.6407,92.9000,-53.3200,-89.0800,-18.5200,12.7100,4.1500,0.0000,0.0000,-0.0000,1956.0000,1044.0000,1500.0000,1487.0000
230380.2680,2.0000,1458.0000,1000.0000,1501.0000,94.0000,-113.0000,13.0000,237.0000,-59.0000,4784.0000,-0.3712,0.1242,-0.6548,0.6465,92.5200,-53.0500,-89.0100,-18.2600,13.1200,4.2900,0.0000,0.0000,-0.0000,1956.0000,1044.0000,1500.0000,1487.0000
230397.0970,2.0000,1458.0000,1000.0000,1501.0000,103.0000,-110.0000,8.0000,287.0000,-139.0000,4905.0000,-0.3845,0.1283,-0.6394,0.6533,92.5200,-53.0500,-89.0100,-18.2600,13.1200,4.2900,0.0000,0.0000,-0.0000,1956.0000,1044.0000,1500.0000,1487.0000
230413.7110,2.0000,1458.0000,1000.0000,1501.0000,106.0000,-108.0000,5.0000,340.0000,-223.0000,5056.0000,-0.3970,0.1320,-0.6234,0.6606,92.1500,-52.7700,-88.9300,-17.9900,13.5000,4.4100,0.0000,0.0000,-0.0000,1956.0000,1044.0000,1500.0000,1487.0000
230430.4720,2.0000,1224.0000,1571.0000,2000.0000,111.0000,-106.0000,3.0000,350.0000,-273.0000,5249.0000,-0.4089,0.1355,-0.6067,0.6681,91.8000,-52.4900,-88.8600,-17.7200,13.8700,4.5000,0.0000,0.0000,-0.0000,1012.0000,1084.0000,1500.0000,1266.0000
230447.1480,2.0000,1224.0000,1572.0000,2000.0000,101.0000,-101.0000,2.0000,387.0000,-222.0000,5472.0000,-0.4201,0.1389,-0.5902,0.6752,91.4400,-52.1900,-88.7800,-17.4200,14.2800,4.5600,0.0000,0.0000,-0.0000,1012.0000,1084.0000,1500.0000,1266.0000
230463.7170,2.0000,1224.0000,1572.0000,2000.0000,81.0000,-103.0000,3.0000,291.0000,-223.0000,5352.0000,-0.4306,0.1428,-0.5749,0.6809,91.0800,-51.8800,-88.7000,-17.1000,14.6900,4.5900,0.0000,0.0000,-0.0000,1012.0000,1084.0000,1500.0000,1266.0000
230480.3390,2.0000,1224.0000,1572.0000,2000.0000,45.0000,-106.0000,10.0000,159.0000,-327.0000,5589.0000,-0.4410,0.1485,-0.5622,0.6836,90.7300,-51.5700,-88.6200,-16.7700,15.0600,4.6000,0.0000,0.0000,-0.0000,1012.0000,1084.0000,1500.0000,1266.0000
230497.3950,2.0000,1224.0000,1572.0000,2000.0000,-6.0000,-103.0000,19.0000,99.0000,-376.0000,5960.0000,-0.4515,0.1565,-0.5536,0.6820,90.7300,-51.5700,-88.6200,-16.7700,15.0600,4.6000,0.0000,0.0000,-0.0000,1012.0000,1084.0000,1500.0000,1266.0000
230513.9400,2.0000,1224.0000,1572.0000,2000.0000,-51.0000,-98.0000,29.0000,84.0000,-332.0000,6071.0000,-0.4610,0.1661,-0.5505,0.6759,90.4000,-51.2500,-88.5400,-16.4200,15.4100,4.5600,0.0000,0.0000,-0.0000,1012.0000,1084.0000,1500.0000,1266.0000
230530.6930,2.0000,1227.0000,1563.0000,2000.0000,-86.0000,-85.0000,38.0000,44.0000,-344.0000,6247.0000,-0.4697,0.1769,-0.5520,0.6659,90.0800,-50.9400,-88.4600,-16.0400,15.7300,4.5200,0.0000,0.0000,-0.0000,1019.0000,1081.0000,1500.0000,1269.0000
230547.4330,2.0000,1227.0000,1562.0000,2000.0000,-118.0000,-70.0000,45.0000,36.0000,-314.0000,6371.0000,-0.4770,0.1879,-0.5578,0.6528,89.7600,-50.6000,-88.3900,-15.6100,16.0900,4.4700,0.0000,0.0000,-0.0000,1019.0000,1081.0000,1500.0000,1269.0000
230564.5410,2.0000,1227.0000,1562.0000,2000.0000,-137.0000,-57.0000,52.0000,20.0000,-253.0000,6231.0000,-0.4829,0.1987,-0.5671,0.6370,89.4400,-50.2500,-88.3100,-15.1500,16.4600,4.4400,0.0000,0.0000,-0.0000,1019.0000,1081.0000,1500.0000,1269.0000
230581.6030,2.0000,1227.0000,1562.0000,2000.0000,-148.0000,-44.0000,57.0000,-15.0000,-215.0000,5886.0000,-0.4876,0.2087,-0.5786,0.6197,89.1300,-49.9000,-88.2400,-14.7000,16.7800,4.4400,0.0000,0.0000,-0.0000,1019.0000,1081.0000,1500.0000,1269.0000
230598.4790,2.0000,1227.0000,1562.0000,2000.0000,-151.0000,-37.0000,61.0000,-116.0000,-229.0000,5351.0000,-0.4915,0.2179,-0.5910,0.6014,89.1300,-49.9000,-88.2400,-14.7000,16.7800,4.4400,0.0000,0.0000,-0.0000,1019.0000,1081.0000,1500.0000,1269.0000
230615.3040,2.0000,1227.0000,1562.0000,2000.0000,-159.0000,-31.0000,64.0000,-171.0000,-145.0000,4848.0000,-0.4945,0.2265,-0.6043,0.5822,88.8400,-49.5600,-88.1700,-14.2900,17.0400,4.4700,0.0000,0.0000,-0.0000,1019.0000,1081.0000,1500.0000,1269.0000
230631.8130,2.0000,1442.0000,1000.0000,1655.0000,-165.0000,-30.0000,67.0000,-206.0000,-124.0000,4290.0000,-0.4968,0.2345,-0.6179,0.5625,88.5700,-49.2100,-88.0900,-13.9200,17.2300,4.5500,0.0000,0.0000,-0.0000,1952.0000,1047.0000,1500.0000,1514.0000
230648.3190,2.0000,1487.0000,1000.0000,1502.0000,-175.0000,-28.0000,70.0000,-259.0000,-127.0000,3870.0000,-0.4986,0.2425,-0.6319,0.5415,88.2900,-48.8500,-88.0200,-13.5700,17.4200,4.6500,0.0000,0.0000,-0.0000,1952.0000,1047.0000,1500.0000,1514.0000
230665.2790,2.0000,1487.0000,1000.0000,1502.0000,-179.0000,-32.0000,73.0000,-234.0000,-45.0000,3396.0000,-0.5002,0.2507,-0.6465,0.5186,88.0100,-48.4700,-87.9400,-13.2300,17.5900,4.7800,0.0000,0.0000,-0.0000,1952.0000,1047.0000,1500.0000,1514.0000
230682.1680,2.0000,1487.0000,1000.0000,1502.0000,-166.0000,-41.0000,71.0000,-145.0000,-88.0000,2907.0000,-0.5019,0.2588,-0.6600,0.4955,88.0100,-48.4700,-87.9400,-13.2300,17.5900,4.7800,0.0000,0.0000,-0.0000,1952.0000,1047.0000,1500.0000,1514.0000
230699.1400,2.0000,1487.0000,1000.0000,1502.0000,-124.0000,-58.0000,64.0000,-52.0000,-94.0000,2643.0000,-0.5058,0.2663,-0.6696,0.4743,87.7500,-48.1000,-87.8700,-12.9400,17.7100,4.9400,0.0000,0.0000,-0.0000,1952.0000,1047.0000,1500.0000,1514.0000
230715.8840,2.0000,1487.0000,1000.0000,1502.0000,-65.0000,-73.0000,51.0000,-63.0000,-53.0000,2662.0000,-0.5124,0.2720,-0.6735,0.4582,87.4900,-47.7400,-87.7900,-12.7100,17.8100,5.1100,0.0000,0.0000,-0.0000,1952.0000,1047.0000,1500.0000,1514.0000
230732.6970,2.0000,1632.0000,1000.0000,1495.0000,-12.0000,-89.0000,34.0000,-5.0000,79.0000,2940.0000,-0.5217,0.2759,-0.6715,0.4481,87.2400,-47.3700,-87.7000,-12.4700,17.8900,5.3000,0.0000,0.0000,-0.0000,1963.0000,1043.0000,1500.0000,1656.0000
230749.5190,2.0000,1636.0000,1000.0000,1495.0000,27.0000,-101.0000,20.0000,50.0000,-14.0000,3345.0000,-0.5329,0.2786,-0.6648,0.4432,86.9900,-46.9900,-87.6100,-12.1600,18.0000,5.5100,0.0000,0.0000,-0.0000,1963.0000,1043.0000,1500.0000,1656.0000
230766.3480,2.0000,1636.0000,1000.0000,1495.0000,50.0000,-107.0000,11.0000,185.0000,-140.0000,3778.0000,-0.5454,0.2805,-0.6547,0.4418,86.7400,-46.6000,-87.5200,-11.7800,18.1500,5.7000,0.0000,0.0000,-0.0000,1963.0000,1043.0000,1500.0000,1656.0000
230782.9950,2.0000,1636.0000,1000.0000,1495.0000,74.0000,-111.0000,1.0000,379.0000,-241.0000,4176.0000,-0.5583,0.2817,-0.6424,0.4431,86.7400,-46.6000,-87.5200,-11.7800,18.1500,5.7000,0.0000,0.0000,-0.0000,1963.0000,1043.0000,1500.0000,1656.0000
230800.0540,2.0000,1636.0000,1000.0000,1495.0000,93.0000,-115.0000,-6.0000,499.0000,-164.0000,4641.0000,-0.5722,0.2825,-0.6273,0.4464,86.5100,-46.2200,-87.4200,-11.3600,18.3100,5.8800,0.0000,0.0000,-0.0000,1963.0000,1043.0000,1500.0000,1656.0000
230816.8460,2.0000,1996.0000,1578.0000,2000.0000,108.0000,-112.0000,-11.0000,600.0000,-123.0000,5102.0000,-0.5862,0.2821,-0.6106,0.4517,86.2900,-45.8400,-87.3300,-10.9200,18.4700,6.0500,0.0000,0.0000,-0.0000,1005.0000,1084.0000,1500.0000,1998.0000
230833.8060,2.0000,1997.0000,1579.0000,2000.0000,119.0000,-111.0000,-15.0000,675.0000,-224.0000,5294.0000,-0.5998,0.2808,-0.5926,0.4584,86.0800,-45.4700,-87.2200,-10.4300,18.6300,6.2100,0.0000,0.0000,-0.0000,1005.0000,1084.0000,1500.0000,1998.0000
230850.4120,2.0000,1997.0000,1579.0000,2000.0000,114.0000,-111.0000,-16.0000,952.0000,-435.0000,5526.0000,-0.6130,0.2791,-0.5743,0.4653,85.8800,-45.0700,-87.1200,-9.9000,18.8400,6.3300,0.0000,0.0000,-0.0000,1005.0000,1084.0000,1500.0000,1998.0000
230867.0990,2.0000,1997.0000,1579.0000,2000.0000,78.0000,-117.0000,-10.0000,1351.0000,-520.0000,5811.0000,-0.6251,0.2790,-0.5571,0.4702,85.6800,-44.6500,-87.0200,-9.3600,19.0900,6.4100,0.0000,0.0000,-0.0000,1005.0000,1084.0000,1500.0000,1998.0000
230884.1120,2.0000,1997.0000,1579.0000,2000.0000,28.0000,-117.0000,2.0000,1563.0000,-597.0000,6140.0000,-0.6365,0.2826,-0.5422,0.4702,85.6800,-44.6500,-87.0200,-9.3600,19.0900,6.4100,0.0000,0.0000,-0.0000,1005.0000,1084.0000,1500.0000,1998.0000
230900.9620,2.0000,1997.0000,1579.0000,2000.0000,-26.0000,-118.0000,18.0000,1674.0000,-708.0000,6589.0000,-0.6462,0.2896,-0.5317,0.4646,85.5100,-44.2400,-86.9200,-8.7900,19.3500,6.4800,0.0000,0.0000,-0.0000,1005.0000,1084.0000,1500.0000,1998.0000
230917.8210,2.0000,1998.0000,1040.0000,1936.0000,-77.0000,-109.0000,35.0000,1453.0000,-828.0000,6703.0000,-0.6543,0.3000,-0.5256,0.4534,85.3500,-43.8500,-86.8200,-8.2300,19.5800,6.5400,0.0000,0.0000,-0.0000,1515.0000,1051.0000,1500.0000,1999.0000
230934.6840,2.0000,1998.0000,1038.0000,1936.0000,-119.0000,-98.0000,48.0000,1618.0000,-801.0000,7261.0000,-0.6604,0.3129,-0.5241,0.4373,85.2100,-43.4600,-86.7200,-7.6700,19.7500,6.5600,0.0000,0.0000,-0.0000,1515.0000,1051.0000,1500.0000,1999.0000
230951.5720,2.0000,1998.0000,1038.0000,1936.0000,-135.0000,-88.0000,59.0000,1605.0000,-772.0000,7119.0000,-0.6645,0.3270,-0.5261,0.4179,85.0600,-43.0200,-86.6100,-6.9700,19.9600,6.5800,0.0000,0.0000,-0.0000,1515.0000,1051.0000,1500.0000,1999.0000
230968.6140,2.0000,1998.0000,1038.0000,1936.0000,-124.0000,-97.0000,63.0000,1592.0000,-587.0000,6293.0000,-0.6685,0.3406,-0.5284,0.3973,84.9300,-42.5800,-86.5100,-6.3400,20.1200,6.6400,0.0000,0.0000,-0.0000,1515.0000,1051.0000,1500.0000,1999.0000
230985.6040,2.0000,1998.0000,1038.0000,1936.0000,-97.0000,-121.0000,62.0000,1440.0000,-525.0000,5655.0000,-0.6745,0.3524,-0.5277,0.3774,84.9300,-42.5800,-86.5100,-6.3400,20.1200,6.6400,0.0000,0.0000,-0.0000,1515.0000,1051.0000,1500.0000,1999.0000
231002.7680,2.0000,1998.0000,1038.0000,1936.0000,-70.0000,-141.0000,58.0000,1530.0000,-565.0000,6141.0000,-0.6836,0.3631,-0.5221,0.3581,84.8200,-42.1600,-86.4000,-5.8300,20.2000,6.7300,0.0000,0.0000,-0.0000,1515.0000,1051.0000,1500.0000,1999.0000
231019.4530,2.0000,1998.0000,1038.0000,1936.0000,-47.0000,-158.0000,55.0000,1516.0000,-482.0000,6634.0000,-0.6946,0.3718,-0.5131,0.3405,84.7200,-41.7600,-86.3000,-5.3600,20.2300,6.8200,0.0000,0.0000,-0.0000,1515.0000,1051.0000,1500.0000,1999.0000
231036.3590,2.0000,1998.0000,1000.0000,1787.0000,-35.0000,-172.0000,51.0000,1525.0000,-215.0000,6894.0000,-0.7071,0.3798,-0.5012,0.3234,84.6400,-41.3700,-86.1900,-4.8600,20.1900,6.9200,0.0000,0.0000,-0.0000,1665.0000,1051.0000,1500.0000,1999.0000
231053.1760,2.0000,1998.0000,1000.0000,1786.0000,-28.0000,-172.0000,48.0000,1795.0000,-199.0000,7795.0000,-0.7199,0.3872,-0.4876,0.3067,84.5500,-40.9300,-86.0800,-4.1500,20.1100,7.0300,0.0000,0.0000,-0.0000,1665.0000,1051.0000,1500.0000,1999.0000
231070.0960,2.0000,1998.0000,1000.0000,1786.0000,-26.0000,-170.0000,44.0000,1899.0000,-527.0000,8963.0000,-0.7322,0.3938,-0.4736,0.2907,84.4900,-40.5000,-85.9600,-3.3600,19.9800,7.0900,0.0000,0.0000,-0.0000,1665.0000,1051.0000,1500.0000,1999.0000
231087.4870,2.0000,1998.0000,1000.0000,1786.0000,-17.0000,-159.0000,37.0000,1868.0000,-332.0000,9086.0000,-0.7441,0.3997,-0.4589,0.2756,84.4900,-40.5000,-85.9600,-3.3600,19.9800,7.0900,0.0000,0.0000,-0.0000,1665.0000,1051.0000,1500.0000,1999.0000
231104.0530,2.0000,1998.0000,1000.0000,1786.0000,-24.0000,-151.0000,31.0000,1821.0000,-449.0000,9748.0000,-0.7542,0.4055,-0.4452,0.2619,84.4300,-40.0800,-85.8500,-2.5700,19.7800,7.1000,0.0000,0.0000,-0.0000,1665.0000,1051.0000,1500.0000,1999.0000
231120.7690,2.0000,1998.0000,1000.0000,1807.0000,-28.0000,-135.0000,26.0000,1603.0000,-588.0000,9590.0000,-0.7627,0.4115,-0.4322,0.2491,84.4000,-39.6900,-85.7300,-1.8200,19.5200,7.0700,0.0000,0.0000,-0.0000,1644.0000,1051.0000,1500.0000,1999.0000
231137.8770,2.0000,1998.0000,1000.0000,1807.0000,-25.0000,-120.0000,20.0000,1433.0000,-583.0000,9202.0000,-0.7697,0.4174,-0.4207,0.2376,84.3900,-39.3300,-85.6200,-1.1500,19.2200,6.9900,0.0000,0.0000,-0.0000,1644.0000,1051.0000,1500.0000,1999.0000
231154.6620,2.0000,1998.0000,1000.0000,1807.0000,-30.0000,-109.0000,11.0000,1118.0000,-81.0000,8204.0000,-0.7754,0.4230,-0.4099,0.2278,84.3800,-38.9200,-85.5100,-0.3900,18.9700,6.9100,0.0000,0.0000,-0.0000,1644.0000,1051.0000,1500.0000,1999.0000
231171.4270,2.0000,1998.0000,1000.0000,1807.0000,-33.0000,-94.0000,7.0000,1157.0000,-148.0000,8050.0000,-0.7796,0.4292,-0.4001,0.2191,84.3800,-38.5100,-85.4000,0.2500,18.7000,6.8800,0.0000,0.0000,-0.0000,1644.0000,1051.0000,1500.0000,1999.0000
231188.2080,2.0000,1998.0000,1000.0000,1807.0000,-26.0000,-81.0000,4.0000,1275.0000,-480.0000,7960.0000,-0.7826,0.4351,-0.3917,0.2116,84.3800,-38.5100,-85.4000,0.2500,18.7000,6.8800,0.0000,0.0000,-0.0000,1644.0000,1051.0000,1500.0000,1999.0000
231205.0270,2.0000,1998.0000,1000.0000,1807.0000,-19.0000,-69.0000,-2.0000,1443.0000,-434.0000,7807.0000,-0.7853,0.4396,-0.3842,0.2059,84.4000,-38.1300,-85.2900,0.8100,18.4500,6.8200,0.0000,0.0000,-0.0000,1644.0000,1051.0000,1500.0000,1999.0000
231221.7460,2.0000,1998.0000,1000.0000,1832.0000,-11.0000,-61.0000,-10.0000,1178.0000,-538.0000,7145.0000,-0.7875,0.4436,-0.3771,0.2020,84.4300,-37.7700,-85.1900,1.3400,18.2100,6.7500,0.0000,0.0000,-0.0000,1619.0000,1051.0000,1500.0000,1999.0000
231238.6040,2.0000,1998.0000,1000.0000,1832.0000,6.0000,-66.0000,-11.0000,993.0000,-539.0000,6216.0000,-0.7904,0.4461,-0.3695,0.1993,84.4600,-37.4300,-85.0900,1.7300,17.9800,6.6800,0.0000,0.0000,-0.0000,1619.0000,1051.0000,1500.0000,1999.0000
231255.7150,2.0000,1998.0000,1000.0000,1832.0000,9.0000,-64.0000,-15.0000,930.0000,-212.0000,5680.0000,-0.7941,0.4475,-0.3608,0.1972,84.5100,-37.0400,-84.9900,2.3200,17.7300,6.6500,0.0000,0.0000,-0.0000,1619.0000,1051.0000,1500.0000,1999.0000
231272.3540,2.0000,1998.0000,1000.0000,1832.0000,12.0000,-72.0000,-16.0000,1000.0000,-366.0000,5937.0000,-0.7978,0.4489,-0.3518,0.1954,84.5800,-36.6600,-84.8800,2.8600,17.4800,6.6600,0.0000,0.0000,-0.0000,1619.0000,1051.0000,1500.0000,1999.0000
231289.0400,2.0000,1998.0000,1000.0000,1832.0000,11.0000,-73.0000,-15.0000,1112.0000,-549.0000,5937.0000,-0.8017,0.4502,-0.3422,0.1934,84.5800,-36.6600,-84.8800,2.8600,17.4800,6.6600,0.0000,0.0000,-0.0000,1619.0000,1051.0000,1500.0000,1999.0000
231305.5670,2.0000,1998.0000,1000.0000,1832.0000,18.0000,-88.0000,-13.0000,1089.0000,-667.0000,5739.0000,-0.8063,0.4513,-0.3315,0.1906,84.6500,-36.3100,-84.7800,3.3600,17.2200,6.6500,0.0000,0.0000,-0.0000,1619.0000,1051.0000,1500.0000,1999.0000
231322.3560,2.0000,1998.0000,1000.0000,1842.0000,28.0000,-107.0000,-11.0000,872.0000,-705.0000,5516.0000,-0.8121,0.4517,-0.3186,0.1868,84.7200,-35.9800,-84.6800,3.8000,16.9900,6.6300,0.0000,0.0000,-0.0000,1578.0000,1050.0000,1500.0000,1999.0000
231339.2600,2.0000,1998.0000,1000.0000,1874.0000,40.0000,-131.0000,-9.0000,974.0000,-868.0000,6409.0000,-0.8195,0.4513,-0.3028,0.1819,84.8000,-35.6700,-84.5800,4.1400,16.7600,6.5900,0.0000,0.0000,-0.0000,1578.0000,1050.0000,1500.0000,1999.0000
231355.9740,2.0000,1998.0000,1000.0000,1874.0000,43.0000,-147.0000,-4.0000,1397.0000,-821.0000,7219.0000,-0.8280,0.4502,-0.2846,0.1755,84.9100,-35.3100,-84.4700,4.7700,16.3300,6.4900,0.0000,0.0000,-0.0000,1578.0000,1050.0000,1500.0000,1999.0000
231372.9570,2.0000,1998.0000,1000.0000,1874.0000,54.0000,-162.0000,1.0000,1531.0000,-897.0000,7977.0000,-0.8375,0.4482,-0.2640,0.1676,85.0300,-34.9700,-84.3700,5.4100,15.8400,6.3500,0.0000,0.0000,-0.0000,1578.0000,1050.0000,1500.0000,1999.0000
231390.1000,2.0000,1998.0000,1000.0000,1874.0000,59.0000,-171.0000,5.0000,1370.0000,-867.0000,8548.0000,-0.8474,0.4452,-0.2421,0.1586,85.0300,-34.9700,-84.3700,5.4100,15.8400,6.3500,0.0000,0.0000,-0.0000,1578.0000,1050.0000,1500.0000,1999.0000
231406.9190,2.0000,1998.0000,1000.0000,1874.0000,61.0000,-173.0000,11.0000,1360.0000,-694.0000,9119.0000,-0.8574,0.4411,-0.2197,0.1487,85.1600,-34.6600,-84.2700,6.0000,15.3200,6.1200,0.0000,0.0000,-0.0000,1578.0000,1050.0000,1500.0000,1999.0000
231423.8500,2.0000,1998.0000,1000.0000,1900.0000,53.0000,-173.0000,15.0000,1748.0000,-803.0000,10108.0000,-0.8666,0.4370,-0.1976,0.1379,85.2900,-34.3800,-84.1800,6.5000,14.7800,5.8700,0.0000,0.0000,-0.0000,1552.0000,1050.0000,1500.0000,1999.0000
231440.6060,2.0000,1998.0000,1000.0000,1900.0000,40.0000,-155.0000,17.0000,1624.0000,-879.0000,10786.0000,-0.8743,0.4337,-0.1771,0.1270,85.4200,-34.1300,-84.0800,6.9900,14.2100,5.5300,0.0000,0.0000,-0.0000,1552.0000,1050.0000,1500.0000,1999.0000
231457.5990,2.0000,1998.0000,1000.0000,1900.0000,30.0000,-134.0000,20.0000,1532.0000,-873.0000,10717.0000,-0.8804,0.4312,-0.1590,0.1168,85.5900,-33.8300,-83.9900,7.6100,13.5200,5.1000,0.0000,0.0000,-0.0000,1552.0000,1050.0000,1500.0000,1999.0000
231474.2560,2.0000,1998.0000,1000.0000,1900.0000,26.0000,-109.0000,23.0000,1483.0000,-1139.0000,10575.0000,-0.8850,0.4292,-0.1448,0.1078,85.7700,-33.5600,-83.9100,8.1300,12.8600,4.6300,0.0000,0.0000,-0.0000,1552.0000,1050.0000,1500.0000,1999.0000
231491.5700,2.0000,1998.0000,1000.0000,1900.0000,23.0000,-79.0000,27.0000,1395.0000,-1000.0000,9714.0000,-0.8889,0.4268,-0.1336,0.0994,85.7700,-33.5600,-83.9100,8.1300,12.8600,4.6300,0.0000,0.0000,-0.0000,1552.0000,1050.0000,1500.0000,1999.0000
231508.4440,2.0000,1998.0000,1000.0000,1900.0000,19.0000,-64.0000,28.0000,1098.0000,-833.0000,8548.0000,-0.8919,0.4245,-0.1260,0.0920,85.9500,-33.3100,-83.8300,8.5500,12.2800,4.1700,0.0000,0.0000,-0.0000,1552.0000,1050.0000,1500.0000,1999.0000
231525.4740,2.0000,1998.0000,1000.0000,1815.0000,8.0000,-59.0000,33.0000,1062.0000,-808.0000,7759.0000,-0.8941,0.4231,-0.1199,0.0848,86.1300,-33.0900,-83.7700,8.8300,11.8100,3.8100,0.0000,0.0000,-0.0000,1637.0000,1051.0000,1500.0000,1999.0000
231542.1140,2.0000,1998.0000,1000.0000,1814.0000,-6.0000,-62.0000,34.0000,883.0000,-690.0000,7153.0000,-0.8955,0.4232,-0.1143,0.0772,86.3000,-32.8800,-83.7100,9.0300,11.4200,3.5000,0.0000,0.0000,-0.0000,1637.0000,1051.0000,1500.0000,1999.0000
231559.0100,2.0000,1998.0000,1000.0000,1814.0000,-11.0000,-65.0000,34.0000,880.0000,-557.0000,6867.0000,-0.8963,0.4245,-0.1084,0.0688,86.5100,-32.6400,-83.6600,9.3600,10.8800,3.2400,0.0000,0.0000,-0.0000,1637.0000,1051.0000,1500.0000,1999.0000
231576.1110,2.0000,1998.0000,1000.0000,1814.0000,-7.0000,-64.0000,34.0000,841.0000,-514.0000,6926.0000,-0.8971,0.4257,-0.1021,0.0602,86.7300,-32.4300,-83.6100,9.6300,10.3700,2.9900,0.0000,0.0000,-0.0000,1637.0000,1051.0000,1500.0000,1999.0000
231593.0620,2.0000,1998.0000,1000.0000,1814.0000,-9.0000,-71.0000,33.0000,814.0000,-454.0000,6321.0000,-0.8977,0.4270,-0.0955,0.0517,86.7300,-32.4300,-83.6100,9.6300,10.3700,2.9900,0.0000,0.0000,-0.0000,1637.0000,1051.0000,1500.0000,1999.0000
231609.8340,2.0000,1998.0000,1000.0000,1814.0000,2.0000,-82.0000,32.0000,805.0000,-415.0000,5829.0000,-0.8986,0.4277,-0.0880,0.0428,86.9300,-32.2300,-83.5700,9.8600,9.9100,2.7700,0.0000,0.0000,-0.0000,1637.0000,1051.0000,1500.0000,1999.0000
231626.5820,2.0000,1998.0000,1000.0000,1792.0000,10.0000,-103.0000,27.0000,923.0000,-31.0000,5313.0000,-0.9002,0.4271,-0.0780,0.0336,87.1300,-32.0500,-83.5300,10.0200,9.5200,2.6000,0.0000,0.0000,-0.0000,1660.0000,1051.0000,1500.0000,1999.0000
231643.6120,2.0000,1998.0000,1000.0000,1791.0000,24.0000,-122.0000,24.0000,1216.0000,-156.0000,6274.0000,-0.9026,0.4249,-0.0650,0.0236,87.3300,-31.8900,-83.4900,10.1500,9.1500,2.5000,0.0000,0.0000,-0.0000,1660.0000,1051.0000,1500.0000,1999.0000
231660.6440,2.0000,1998.0000,1000.0000,1791.0000,31.0000,-142.0000,22.0000,1257.0000,-734.0000,7809.0000,-0.9054,0.4215,-0.0484,0.0124,87.5700,-31.7100,-83.4500,10.4900,8.4000,2.3000,0.0000,0.0000,-0.0000,1660.0000,1051.0000,1500.0000,1999.0000
231677.2400,2.0000,1998.0000,1000.0000,1791.0000,32.0000,-156.0000,21.0000,1060.0000,-789.0000,8073.0000,-0.9082,0.4174,-0.0303,0.0010,87.8100,-31.5600,-83.4200,10.7700,7.6400,1.9900,0.0000,0.0000,-0.0000,1660.0000,1051.0000,1500.0000,1999.0000
231694.0860,2.0000,1998.0000,1000.0000,1791.0000,28.0000,-154.0000,24.0000,1382.0000,-757.0000,8792.0000,-0.9105,0.4132,-0.0110,-0.0111,87.8100,-31.5600,-83.4200,10.7700,7.6400,1.9900,0.0000,0.0000,-0.0000,1660.0000,1051.0000,1500.0000,1999.0000
231710.3780,2.0000,1998.0000,1000.0000,1791.0000,23.0000,-160.0000,23.0000,1545.0000,-566.0000,9461.0000,-0.9119,0.4097,0.0082,-0.0233,88.0500,-31.4400,-83.3900,10.9800,6.9100,1.6200,0.0000,0.0000,-0.0000,1660.0000,1051.0000,1500.0000,1999.0000
231727.3550,2.0000,1998.0000,1000.0000,1850.0000,27.0000,-157.0000,21.0000,1754.0000,-517.0000,10013.0000,-0.9129,0.4056,0.0280,-0.0356,88.2700,-31.3300,-83.3700,11.1300,6.2000,1.2000,0.0000,0.0000,-0.0000,1601.0000,1051.0000,1500.0000,1999.0000
231744.1120,2.0000,1998.0000,1000.0000,1850.0000,25.0000,-153.0000,19.0000,1822.0000,-492.0000,10284.0000,-0.9135,0.4012,0.0473,-0.0472,88.4900,-31.2400,-83.3600,11.2300,5.4800,0.7300,0.0000,0.0000,-0.0000,1601.0000,1051.0000,1500.0000,1999.0000
231761.0800,2.0000,1998.0000,1000.0000,1850.0000,15.0000,-141.0000,16.0000,1801.0000,-552.0000,10529.0000,-0.9134,0.3974,0.0660,-0.0581,88.7500,-31.1500,-83.3500,11.3700,4.6200,0.2300,0.0000,0.0000,-0.0000,1601.0000,1051.0000,1500.0000,1999.0000
231778.2190,2.0000,1998.0000,1000.0000,1850.0000,12.0000,-127.0000,15.0000,1384.0000,-686.0000,10257.0000,-0.9127,0.3944,0.0830,-0.0677,88.7500,-31.1500,-83.3500,11.3700,4.6200,0.2300,0.0000,0.0000,-0.0000,1601.0000,1051.0000,1500.0000,1999.0000
231795.3840,2.0000,1998.0000,1000.0000,1850.0000,1.0000,-117.0000,15.0000,1227.0000,-613.0000,9739.0000,-0.9112,0.3926,0.0983,-0.0765,89.0000,-31.0800,-83.3500,11.4000,3.8400,-0.3100,0.0000,0.0000,-0.0000,1601.0000,1051.0000,1500.0000,1999.0000
231812.3580,2.0000,1998.0000,1000.0000,1850.0000,-14.0000,-102.0000,13.0000,1309.0000,-370.0000,9166.0000,-0.9090,0.3925,0.1122,-0.0844,89.2400,-31.0200,-83.3700,11.3600,3.1800,-0.8000,0.0000,0.0000,-0.0000,1601.0000,1051.0000,1500.0000,1999.0000
231829.0350,2.0000,1999.0000,1000.0000,1599.0000,-22.0000,-84.0000,11.0000,1158.0000,-494.0000,8616.0000,-0.9062,0.3940,0.1239,-0.0906,89.4700,-30.9800,-83.3900,11.2900,2.6100,-1.2400,0.0000,0.0000,-0.0000,1847.0000,1061.0000,1500.0000,2000.0000
231845.8990,2.0000,2000.0000,1000.0000,1593.0000,-16.0000,-77.0000,9.0000,1245.0000,-357.0000,7714.0000,-0.9035,0.3956,0.1340,-0.0960,89.6900,-30.9600,-83.4200,11.2100,2.1000,-1.6300,0.0000,0.0000,-0.0000,1847.0000,1061.0000,1500.0000,2000.0000
231862.7510,2.0000,2000.0000,1000.0000,1593.0000,-11.0000,-78.0000,2.0000,1239.0000,-185.0000,7134.0000,-0.9010,0.3965,0.1444,-0.1010,89.9500,-30.9400,-83.4600,11.1600,1.4700,-1.9400,0.0000,0.0000,-0.0000,1847.0000,1061.0000,1500.0000,2000.0000
231879.5150,2.0000,2000.0000,1000.0000,1593.0000,7.0000,-76.0000,-4.0000,1333.0000,-337.0000,7248.0000,-0.8990,0.3959,0.1546,-0.1050,89.9500,-30.9400,-83.4600,11.1600,1.4700,-1.9400,0.0000,0.0000,-0.0000,1847.0000,1061.0000,1500.0000,2000.0000
231896.5220,2.0000,2000.0000,1000.0000,1593.0000,25.0000,-74.0000,-10.0000,1512.0000,-680.0000,7558.0000,-0.8983,0.3926,0.1647,-0.1086,90.2000,-30.9300,-83.5000,11.1100,0.8900,-2.2200,0.0000,0.0000,-0.0000,1847.0000,1061.0000,1500.0000,2000.0000
231913.3550,2.0000,2000.0000,1000.0000,1593.0000,40.0000,-83.0000,-14.0000,1196.0000,-617.0000,6700.0000,-0.8985,0.3865,0.1751,-0.1121,90.4400,-30.9400,-83.5500,11.0500,0.3800,-2.5100,0.0000,0.0000,-0.0000,1847.0000,1061.0000,1500.0000,2000.0000
231930.0700,2.0000,1998.0000,1235.0000,1895.0000,49.0000,-83.0000,-14.0000,1121.0000,-484.0000,5912.0000,-0.8991,0.3789,0.1862,-0.1160,90.6600,-30.9600,-83.6000,10.9800,-0.0100,-2.7600,0.0000,0.0000,-0.0000,1434.0000,1170.0000,1500.0000,1999.0000
231946.9350,2.0000,1998.0000,1235.0000,1895.0000,71.0000,-103.0000,-15.0000,1179.0000,-619.0000,5744.0000,-0.9001,0.3688,0.1980,-0.1207,90.8700,-30.9800,-83.6500,10.9100,-0.3400,-2.9500,0.0000,0.0000,-0.0000,1434.0000,1170.0000,1500.0000,1999.0000
231963.6180,2.0000,1998.0000,1235.0000,1895.0000,63.0000,-118.0000,-10.0000,1327.0000,-527.0000,6082.0000,-0.9008,0.3574,0.2118,-0.1268,91.1300,-31.0300,-83.7000,10.7500,-0.9100,-3.1400,0.0000,0.0000,-0.0000,1434.0000,1170.0000,1500.0000,1999.0000
231980.2880,2.0000,1998.0000,1235.0000,1895.0000,34.0000,-132.0000,2.0000,1434.0000,-738.0000,6944.0000,-0.8993,0.3485,0.2276,-0.1340,91.1300,-31.0300,-83.7000,10.7500,-0.9100,-3.1400,0.0000,0.0000,-0.0000,1434.0000,1170.0000,1500.0000,1999.0000
231997.2450,2.0000,1998.0000,1235.0000,1895.0000,2.0000,-141.0000,17.0000,1649.0000,-972.0000,7817.0000,-0.8953,0.3437,0.2451,-0.1427,91.3800,-31.0800,-83.7600,10.5600,-1.4300,-3.3900,0.0000,0.0000,-0.0000,1434.0000,1170.0000,1500.0000,1999.0000
232014.0170,2.0000,1998.0000,1235.0000,1895.0000,-26.0000,-146.0000,32.0000,1703.0000,-1165.0000,8472.0000,-0.8887,0.3433,0.2629,-0.1524,91.6000,-31.1300,-83.8100,10.3200,-1.9000,-3.7000,0.0000,0.0000,-0.0000,1434.0000,1170.0000,1500.0000,1999.0000
232030.9300,2.0000,2000.0000,1000.0000,1447.0000,-44.0000,-152.0000,42.0000,1455.0000,-921.0000,8427.0000,-0.8800,0.3461,0.2813,-0.1632,91.8000,-31.1900,-83.8800,10.0200,-2.3300,-4.0900,0.0000,0.0000,-0.0000,1878.0000,1176.0000,1500.0000,2000.0000
232047.8790,2.0000,2000.0000,1000.0000,1447.0000,-42.0000,-154.0000,49.0000,1573.0000,-657.0000,8610.0000,-0.8699,0.3503,0.2999,-0.1748,92.0000,-31.2600,-83.9400,9.6700,-2.7700,-4.4300,0.0000,0.0000,-0.0000,1878.0000,1176.0000,1500.0000,2000.0000
232064.9020,2.0000,2000.0000,1000.0000,1447.0000,-11.0000,-152.0000,48.0000,1855.0000,-563.0000,8951.0000,-0.8600,0.3523,0.3179,-0.1877,92.2100,-31.3500,-84.0200,9.2300,-3.4100,-4.7800,0.0000,0.0000,-0.0000,1878.0000,1176.0000,1500.0000,2000.0000
232081.4920,2.0000,2000.0000,1000.0000,1447.0000,27.0000,-142.0000,42.0000,1634.0000,-730.0000,9605.0000,-0.8523,0.3492,0.3337,-0.2009,92.2100,-31.3500,-84.0200,9.2300,-3.4100,-4.7800,0.0000,0.0000,-0.0000,1878.0000,1176.0000,1500.0000,2000.0000
232098.2200,2.0000,2000.0000,1000.0000,1447.0000,58.0000,-116.0000,34.0000,1734.0000,-568.0000,9828.0000,-0.8470,0.3416,0.3465,-0.2142,92.4100,-31.4500,-84.1100,8.7500,-3.9800,-5.1400,0.0000,0.0000,-0.0000,1878.0000,1176.0000,1500.0000,2000.0000
232114.7710,2.0000,2000.0000,1464.0000,1456.0000,82.0000,-93.0000,25.0000,1871.0000,-586.0000,10413.0000,-0.8442,0.3311,0.3556,-0.2262,92.5900,-31.5500,-84.2000,8.2400,-4.4900,-5.5200,0.0000,0.0000,-0.0000,1391.0000,1651.0000,1500.0000,2000.0000
232131.9560,2.0000,2000.0000,1757.0000,1459.0000,92.0000,-45.0000,22.0000,1661.0000,-677.0000,10428.0000,-0.8441,0.3191,0.3600,-0.2369,92.7500,-31.6600,-84.2900,7.6700,-4.9900,-5.9300,0.0000,0.0000,-0.0000,1391.0000,1651.0000,1500.0000,2000.0000
232148.7060,2.0000,2000.0000,1757.0000,1459.0000,97.0000,-1.0000,21.0000,1290.0000,-657.0000,9102.0000,-0.8467,0.3077,0.3581,-0.2453,92.9300,-31.8000,-84.4000,7.0400,-5.5400,-6.3700,0.0000,0.0000,-0.0000,1391.0000,1651.0000,1500.0000,2000.0000
232165.3870,2.0000,2000.0000,1757.0000,1459.0000,91.0000,24.0000,22.0000,1253.0000,-641.0000,7915.0000,-0.8508,0.2977,0.3520,-0.2521,93.0900,-31.9400,-84.5200,6.5400,-5.9400,-6.7500,0.0000,0.0000,-0.0000,1391.0000,1651.0000,1500.0000,2000.0000
232182.2040,2.0000,2000.0000,1757.0000,1459.0000,82.0000,43.0000,22.0000,1255.0000,-581.0000,7029.0000,-0.8555,0.2894,0.3437,-0.2576,93.0900,-31.9400,-84.5200,6.5400,-5.9400,-6.7500,0.0000,0.0000,-0.0000,1391.0000,1651.0000,1500.0000,2000.0000
232199.0510,2.0000,2000.0000,1757.0000,1459.0000,57.0000,72.0000,25.0000,1282.0000,-302.0000,5459.0000,-0.8603,0.2840,0.3330,-0.2614,93.2300,-32.0800,-84.6400,6.1900,-6.2400,-7.0600,0.0000,0.0000,-0.0000,1391.0000,1651.0000,1500.0000,2000.0000
232215.7250,2.0000,2000.0000,1958.0000,1598.0000,17.0000,91.0000,31.0000,1367.0000,-491.0000,4590.0000,-0.8647,0.2837,0.3202,-0.2633,93.3600,-32.2300,-84.7700,6.0000,-6.4900,-7.2800,0.0000,0.0000,-0.0000,1218.0000,1683.0000,1500.0000,2000.0000
232232.5280,2.0000,2000.0000,1963.0000,1601.0000,-25.0000,111.0000,37.0000,1334.0000,-696.0000,3404.0000,-0.8677,0.2898,0.3062,-0.2633,93.4800,-32.3600,-84.9000,5.9200,-6.6600,-7.4300,0.0000,0.0000,-0.0000,1218.0000,1683.0000,1500.0000,2000.0000
232249.2700,2.0000,2000.0000,1963.0000,1601.0000,-73.0000,135.0000,37.0000,1440.0000,-169.0000,2091.0000,-0.8696,0.3019,0.2908,-0.2610,93.6000,-32.5100,-85.0400,5.8500,-6.8200,-7.5200,0.0000,0.0000,-0.0000,1218.0000,1683.0000,1500.0000,2000.0000
232266.2280,2.0000,2000.0000,1963.0000,1601.0000,-149.0000,159.0000,37.0000,1496.0000,394.0000,1024.0000,-0.8690,0.3228,0.2749,-0.2551,93.7300,-32.6900,-85.1800,5.6100,-7.1100,-7.4700,0.0000,0.0000,-0.0000,1218.0000,1683.0000,1500.0000,2000.0000
232282.9600,2.0000,2000.0000,1963.0000,1601.0000,-214.0000,184.0000,35.0000,1457.0000,246.0000,6.0000,-0.8650,0.3537,0.2584,-0.2447,93.7300,-32.6900,-85.1800,5.6100,-7.1100,-7.4700,0.0000,0.0000,-0.0000,1218.0000,1683.0000,1500.0000,2000.0000
232300.1120,2.0000,2000.0000,1963.0000,1601.0000,-276.0000,209.0000,30.0000,850.0000,313.0000,-2260.0000,-0.8573,0.3935,0.2400,-0.2292,93.8500,-32.8600,-85.3300,5.4500,-7.3300,-7.3900,0.0000,0.0000,-0.0000,1218.0000,1683.0000,1500.0000,2000.0000
232316.9590,2.0000,2000.0000,1963.0000,1601.0000,-311.0000,218.0000,27.0000,672.0000,489.0000,-3857.0000,-0.8455,0.4385,0.2207,-0.2102,93.9600,-33.0200,-85.4700,5.3700,-7.3800,-7.2100,0.0000,0.0000,-0.0000,1218.0000,1683.0000,1500.0000,2000.0000
232333.9310,2.0000,2000.0000,1386.0000,1240.0000,-329.0000,219.0000,20.0000,993.0000,460.0000,-4475.0000,-0.8293,0.4853,0.2022,-0.1892,94.0700,-33.1800,-85.6300,5.3200,-7.3400,-7.0400,0.0000,0.0000,-0.0000,1689.0000,1575.0000,1500.0000,2000.0000
232350.7940,2.0000,2000.0000,1386.0000,1240.0000,-330.0000,210.0000,11.0000,1298.0000,492.0000,-5251.0000,-0.8097,0.5313,0.1851,-0.1670,94.1800,-33.3800,-85.8200,5.1900,-7.3500,-6.8800,0.0000,0.0000,-0.0000,1689.0000,1575.0000,1500.0000,2000.0000
232367.6620,2.0000,2000.0000,1386.0000,1240.0000,-292.0000,192.0000,0.0000,1229.0000,475.0000,-6147.0000,-0.7891,0.5726,0.1691,-0.1445,94.2800,-33.5600,-86.0100,5.1100,-7.2300,-6.7400,0.0000,0.0000,-0.0000,1689.0000,1575.0000,1500.0000,2000.0000
232384.6330,2.0000,2000.0000,1386.0000,1240.0000,-220.0000,178.0000,-16.0000,791.0000,809.0000,-6581.0000,-0.7710,0.6055,0.1545,-0.1225,94.2800,-33.5600,-86.0100,5.1100,-7.2300,-6.7400,0.0000,0.0000,-0.0000,1689.0000,1575.0000,1500.0000,2000.0000
232401.3730,2.0000,2000.0000,1386.0000,1240.0000,-126.0000,148.0000,-36.0000,1295.0000,746.0000,-6331.0000,-0.7590,0.6269,0.1425,-0.1025,94.3800,-33.7300,-86.2100,5.0200,-7.0100,-6.6800,0.0000,0.0000,-0.0000,1689.0000,1575.0000,1500.0000,2000.0000
232418.1460,2.0000,2000.0000,1386.0000,1240.0000,-16.0000,111.0000,-58.0000,998.0000,698.0000,-6147.0000,-0.7557,0.6351,0.1351,-0.0854,94.4600,-33.8800,-86.4300,4.9400,-6.7700,-6.5700,0.0000,0.0000,-0.0000,1689.0000,1575.0000,1500.0000,2000.0000
232435.1530,2.0000,2000.0000,1351.0000,1247.0000,44.0000,94.0000,-76.0000,631.0000,788.0000,-5479.0000,-0.7603,0.6324,0.1307,-0.0696,94.5500,-34.0300,-86.6500,4.8800,-6.5700,-6.3800,0.0000,0.0000,-0.0000,1703.0000,1554.0000,1500.0000,2000.0000
232452.2720,2.0000,2000.0000,1351.0000,1247.0000,88.0000,70.0000,-91.0000,728.0000,585.0000,-5244.0000,-0.7689,0.6236,0.1301,-0.0552,94.6400,-34.2100,-86.8800,4.8800,-6.4900,-6.2100,0.0000,0.0000,-0.0000,1703.0000,1554.0000,1500.0000,2000.0000
232469.3270,2.0000,2000.0000,1351.0000,1247.0000,123.0000,46.0000,-99.0000,1077.0000,398.0000,-4725.0000,-0.7804,0.6098,0.1319,-0.0420,94.7300,-34.3800,-87.1100,4.8700,-6.4200,-6.0400,0.0000,0.0000,-0.0000,1703.0000,1554.0000,1500.0000,2000.0000
232486.3130,2.0000,2000.0000,1351.0000,1247.0000,158.0000,28.0000,-103.0000,1132.0000,215.0000,-4079.0000,-0.7941,0.5912,0.1373,-0.0312,94.7300,-34.3800,-87.1100,4.8700,-6.4200,-6.0400,0.0000,0.0000,-0.0000,1703.0000,1554.0000,1500.0000,2000.0000
232503.3530,2.0000,2000.0000,1351.0000,1247.0000,196.0000,12.0000,-103.0000,1382.0000,-108.0000,-3082.0000,-0.8103,0.5677,0.1440,-0.0221,94.8100,-34.5300,-87.3400,4.8600,-6.4200,-5.8600,0.0000,0.0000,-0.0000,1703.0000,1554.0000,1500.0000,2000.0000
232520.3670,2.0000,1998.0000,2000.0000,1795.0000,212.0000,18.0000,-94.0000,1416.0000,-465.0000,-1963.0000,-0.8277,0.5403,0.1506,-0.0147,94.8900,-34.6800,-87.5600,4.8400,-6.5100,-5.7100,0.0000,0.0000,-0.0000,1000.0000,1707.0000,1500.0000,1999.0000
232537.4490,2.0000,1998.0000,2000.0000,1795.0000,225.0000,15.0000,-82.0000,1099.0000,-886.0000,-1166.0000,-0.8454,0.5108,0.1560,-0.0083,94.9700,-34.8400,-87.8000,4.9100,-6.6700,-5.6100,0.0000,0.0000,-0.0000,1000.0000,1707.0000,1500.0000,1999.0000
232554.3610,2.0000,1998.0000,2000.0000,1795.0000,206.0000,21.0000,-66.0000,986.0000,-961.0000,-634.0000,-0.8618,0.4814,0.1597,-0.0036,95.0700,-35.0300,-88.0300,5.1100,-6.8600,-5.4400,0.0000,0.0000,-0.0000,1000.0000,1707.0000,1500.0000,1999.0000
232571.4180,2.0000,1998.0000,2000.0000,1795.0000,150.0000,26.0000,-43.0000,1330.0000,-1043.0000,-211.0000,-0.8750,0.4566,0.1612,-0.0002,95.1700,-35.2000,-88.2400,5.2700,-7.0500,-5.2600,0.0000,0.0000,-0.0000,1000.0000,1707.0000,1500.0000,1999.0000
232588.2330,2.0000,1998.0000,2000.0000,1795.0000,45.0000,32.0000,-16.0000,1445.0000,-934.0000,176.0000,-0.8822,0.4430,0.1595,0.0026,95.1700,-35.2000,-88.2400,5.2700,-7.0500,-5.2600,0.0000,0.0000,-0.0000,1000.0000,1707.0000,1500.0000,1999.0000
232605.3340,2.0000,1998.0000,2000.0000,1795.0000,-90.0000,40.0000,18.0000,982.0000,-1191.0000,880.0000,-0.8815,0.4459,0.1554,0.0043,95.2600,-35.3800,-88.4300,5.4200,-7.2400,-5.0600,0.0000,0.0000,-0.0000,1000.0000,1707.0000,1500.0000,1999.0000
232622.3320,2.0000,1999.0000,1520.0000,1202.0000,-206.0000,58.0000,47.0000,762.0000,-1118.0000,1086.0000,-0.8723,0.4662,0.1473,0.0055,95.3500,-35.5400,-88.6100,5.5000,-7.4200,-4.8800,0.0000,0.0000,-0.0000,1642.0000,1661.0000,1500.0000,2000.0000
232639.1930,2.0000,2000.0000,1519.0000,1201.0000,-292.0000,74.0000,69.0000,779.0000,-777.0000,423.0000,-0.8560,0.4989,0.1353,0.0066,95.4600,-35.7200,-88.7700,5.6700,-7.6200,-4.7300,0.0000,0.0000,-0.0000,1642.0000,1661.0000,1500.0000,2000.0000
232655.6900,2.0000,2000.0000,1519.0000,1201.0000,-337.0000,84.0000,85.0000,1302.0000,-986.0000,-1111.0000,-0.8337,0.5389,0.1203,0.0077,95.6000,-35.9200,-88.9200,6.0700,-7.7500,-4.5600,0.0000,0.0000,-0.0000,1642.0000,1661.0000,1500.0000,2000.0000
232672.5230,2.0000,2000.0000,1519.0000,1201.0000,-322.0000,86.0000,98.0000,873.0000,-797.0000,-2271.0000,-0.8078,0.5804,0.1030,0.0078,95.7400,-36.1100,-89.0600,6.4800,-7.7100,-4.3900,0.0000,0.0000,-0.0000,1642.0000,1661.0000,1500.0000,2000.0000
232689.2870,2.0000,2000.0000,1519.0000,1201.0000,-250.0000,71.0000,102.0000,956.0000,-699.0000,-3446.0000,-0.7838,0.6151,0.0858,0.0054,95.7400,-36.1100,-89.0600,6.4800,-7.7100,-4.3900,0.0000,0.0000,-0.0000,1642.0000,1661.0000,1500.0000,2000.0000
232706.3530,2.0000,2000.0000,1519.0000,1201.0000,-140.0000,63.0000,102.0000,1066.0000,-630.0000,-3437.0000,-0.7664,0.6387,0.0691,0.0011,95.8800,-36.2900,-89.2000,6.8100,-7.5500,-4.1900,0.0000,0.0000,-0.0000,1642.0000,1661.0000,1500.0000,2000.0000
232723.2320,2.0000,2000.0000,1000.0000,1384.0000,-45.0000,71.0000,98.0000,921.0000,-533.0000,-3031.0000,-0.7585,0.6495,0.0531,-0.0042,96.0100,-36.4500,-89.3300,7.0900,-7.3500,-4.1500,0.0000,0.0000,-0.0000,1937.0000,1180.0000,1500.0000,2000.0000
232740.1780,2.0000,2000.0000,1000.0000,1384.0000,21.0000,81.0000,92.0000,1320.0000,-357.0000,-2953.0000,-0.7578,0.6515,0.0362,-0.0083,96.1700,-36.6200,-89.4700,7.4100,-7.1900,-4.1100,0.0000,0.0000,-0.0000,1937.0000,1180.0000,1500.0000,2000.0000
232757.4910,2.0000,2000.0000,1000.0000,1384.0000,67.0000,68.0000,79.0000,1460.0000,37.0000,-3968.0000,-0.7625,0.6466,0.0202,-0.0123,96.3500,-36.8000,-89.6200,7.8000,-7.0400,-4.0600,0.0000,0.0000,-0.0000,1937.0000,1180.0000,1500.0000,2000.0000
232774.3120,2.0000,2000.0000,1000.0000,1384.0000,107.0000,28.0000,58.0000,1406.0000,247.0000,-5455.0000,-0.7706,0.6370,0.0086,-0.0166,96.5400,-36.9600,-89.7800,8.1500,-6.7900,-3.9700,0.0000,0.0000,-0.0000,1937.0000,1180.0000,1500.0000,2000.0000
232791.4100,2.0000,2000.0000,1000.0000,1384.0000,149.0000,-21.0000,36.0000,1001.0000,229.0000,-6004.0000,-0.7825,0.6222,0.0043,-0.0230,96.7200,-37.1100,-89.9400,8.4300,-6.4300,-3.8100,0.0000,0.0000,-0.0000,1937.0000,1180.0000,1500.0000,2000.0000
232808.1290,2.0000,2000.0000,1000.0000,1384.0000,193.0000,-64.0000,15.0000,859.0000,216.0000,-5034.0000,-0.7976,0.6023,0.0073,-0.0310,96.7200,-37.1100,-89.9400,8.4300,-6.4300,-3.8100,0.0000,0.0000,-0.0000,1937.0000,1180.0000,1500.0000,2000.0000
232824.8900,2.0000,2000.0000,1024.0000,1314.0000,226.0000,-92.0000,-4.0000,555.0000,242.0000,-3642.0000,-0.8157,0.5768,0.0160,-0.0398,96.8900,-37.2500,-90.0900,8.6400,-6.1500,-3.5400,0.0000,0.0000,-0.0000,1786.0000,1430.0000,1500.0000,2000.0000
232841.8810,2.0000,2000.0000,1146.0000,1284.0000,236.0000,-111.0000,-15.0000,772.0000,167.0000,-1210.0000,-0.8347,0.5479,0.0284,-0.0484,97.0800,-37.3900,-90.2400,8.8200,-5.9700,-3.2200,0.0000,0.0000,-0.0000,1786.0000,1430.0000,1500.0000,2000.0000
232858.5570,2.0000,2000.0000,1146.0000,1284.0000,249.0000,-118.0000,-20.0000,1047.0000,-105.0000,1176.0000,-0.8529,0.5173,0.0419,-0.0564,97.3000,-37.5300,-90.3700,9.0200,-5.9500,-2.9000,0.0000,0.0000,-0.0000,1786.0000,1430.0000,1500.0000,2000.0000
232875.4510,2.0000,2000.0000,1146.0000,1284.0000,268.0000,-110.0000,-20.0000,1176.0000,-610.0000,2882.0000,-0.8713,0.4832,0.0560,-0.0643,97.5100,-37.6800,-90.4900,9.1800,-6.1300,-2.6000,0.0000,0.0000,-0.0000,1786.0000,1430.0000,1500.0000,2000.0000
232892.6590,2.0000,2000.0000,1146.0000,1284.0000,286.0000,-91.0000,-16.0000,1042.0000,-795.0000,3677.0000,-0.8900,0.4454,0.0674,-0.0713,97.7000,-37.8100,-90.5700,9.2700,-6.3700,-2.4400,0.0000,0.0000,-0.0000,1786.0000,1430.0000,1500.0000,2000.0000
232909.5270,2.0000,2000.0000,1146.0000,1284.0000,293.0000,-71.0000,-9.0000,1310.0000,-576.0000,4560.0000,-0.9074,0.4058,0.0763,-0.0786,97.7000,-37.8100,-90.5700,9.2700,-6.3700,-2.4400,0.0000,0.0000,-0.0000,1786.0000,1430.0000,1500.0000,2000.0000
232926.3360,2.0000,1998.0000,2000.0000,1796.0000,311.0000,-60.0000,-1.0000,1382.0000,-582.0000,5154.0000,-0.9237,0.3643,0.0818,-0.0857,97.8800,-37.9400,-90.6400,9.3300,-6.6200,-2.3700,0.0000,0.0000,-0.0000,1000.0000,1706.0000,1500.0000,1999.0000
232942.8760,2.0000,1998.0000,2000.0000,1796.0000,309.0000,-43.0000,10.0000,1219.0000,-672.0000,5200.0000,-0.9386,0.3214,0.0846,-0.0927,98.0900,-38.0800,-90.6900,9.4500,-6.7300,-2.3600,0.0000,0.0000,-0.0000,1000.0000,1706.0000,1500.0000,1999.0000
232959.5130,2.0000,1998.0000,2000.0000,1796.0000,267.0000,-27.0000,24.0000,1065.0000,-662.0000,4571.0000,-0.9506,0.2815,0.0844,-0.1000,98.3200,-38.2200,-90.7300,9.6200,-6.6500,-2.4200,0.0000,0.0000,-0.0000,1000.0000,1706.0000,1500.0000,1999.0000
232976.2780,2.0000,1998.0000,2000.0000,1796.0000,192.0000,-22.0000,41.0000,957.0000,-580.0000,3890.0000,-0.9589,0.2492,0.0828,-0.1080,98.5400,-38.3600,-90.7600,9.7500,-6.5000,-2.4500,0.0000,0.0000,-0.0000,1000.0000,1706.0000,1500.0000,1999.0000
232993.1010,2.0000,1998.0000,2000.0000,1796.0000,88.0000,-20.0000,58.0000,1231.0000,-653.0000,4232.0000,-0.9627,0.2296,0.0818,-0.1171,98.5400,-38.3600,-90.7600,9.7500,-6.5000,-2.4500,0.0000,0.0000,-0.0000,1000.0000,1706.0000,1500.0000,1999.0000
233009.9510,2.0000,1998.0000,2000.0000,1796.0000,-26.0000,-5.0000,75.0000,999.0000,-591.0000,4713.0000,-0.9624,0.2260,0.0807,-0.1275,98.7400,-38.4700,-90.7800,9.8600,-6.3600,-2.5000,0.0000,0.0000,-0.0000,1000.0000,1706.0000,1500.0000,1999.0000
233026.6460,2.0000,1999.0000,1964.0000,1694.0000,-131.0000,27.0000,87.0000,576.0000,-527.0000,5100.0000,-0.9582,0.2384,0.0780,-0.1379,98.9400,-38.5900,-90.8000,9.9300,-6.2700,-2.6400,0.0000,0.0000,-0.0000,1171.0000,1637.0000,1500.0000,2000.0000
233043.1980,2.0000,2000.0000,1964.0000,1694.0000,-225.0000,58.0000,93.0000,746.0000,61.0000,5118.0000,-0.9502,0.2650,0.0728,-0.1472,99.1500,-38.7000,-90.8300,9.9200,-6.2300,-2.8200,0.0000,0.0000,-0.0000,1171.0000,1637.0000,1500.0000,2000.0000
233059.7210,2.0000,2000.0000,1964.0000,1694.0000,-296.0000,87.0000,93.0000,808.0000,87.0000,4197.0000,-0.9381,0.3031,0.0650,-0.1547,99.3700,-38.8200,-90.8500,9.8800,-6.2800,-2.9700,0.0000,0.0000,-0.0000,1171.0000,1637.0000,1500.0000,2000.0000
233076.4240,2.0000,2000.0000,1964.0000,1694.0000,-352.0000,118.0000,91.0000,980.0000,144.0000,2999.0000,-0.9212,0.3506,0.0542,-0.1599,99.5800,-38.9400,-90.8800,9.8700,-6.3100,-3.0100,0.0000,0.0000,-0.0000,1171.0000,1637.0000,1500.0000,2000.0000
233093.3190,2.0000,2000.0000,1964.0000,1694.0000,-386.0000,150.0000,86.0000,782.0000,378.0000,1400.0000,-0.8994,0.4040,0.0405,-0.1621,99.5800,-38.9400,-90.8800,9.8700,-6.3100,-3.0100,0.0000,0.0000,-0.0000,1171.0000,1637.0000,1500.0000,2000.0000
233110.0750,2.0000,2000.0000,1964.0000,1694.0000,-405.0000,156.0000,74.0000,890.0000,537.0000,-41.0000,-0.8730,0.4596,0.0250,-0.1613,99.7800,-39.0500,-90.9100,9.8900,-6.2700,-2.9200,0.0000,0.0000,-0.0000,1171.0000,1637.0000,1500.0000,2000.0000
233127.0210,2.0000,2000.0000,1000.0000,1384.0000,-407.0000,167.0000,59.0000,609.0000,407.0000,-1334.0000,-0.8424,0.5153,0.0093,-0.1574,99.9800,-39.1500,-90.9300,9.9200,-6.1000,-2.6900,0.0000,0.0000,-0.0000,1938.0000,1179.0000,1500.0000,2000.0000
233143.9670,2.0000,2000.0000,1000.0000,1384.0000,-396.0000,168.0000,41.0000,592.0000,583.0000,-2498.0000,-0.8087,0.5685,-0.0059,-0.1507,100.1800,-39.2600,-90.9400,9.9100,-5.8700,-2.4100,0.0000,0.0000,-0.0000,1938.0000,1179.0000,1500.0000,2000.0000
233160.9220,2.0000,2000.0000,1000.0000,1384.0000,-357.0000,167.0000,22.0000,727.0000,670.0000,-3627.0000,-0.7743,0.6165,-0.0191,-0.1414,100.4000,-39.3600,-90.9600,9.8600,-5.5500,-2.1600,0.0000,0.0000,-0.0000,1938.0000,1179.0000,1500.0000,2000.0000
233177.9830,2.0000,2000.0000,1000.0000,1384.0000,-277.0000,151.0000,0.0000,1115.0000,677.0000,-4618.0000,-0.7432,0.6557,-0.0308,-0.1297,100.6100,-39.4500,-90.9800,9.8400,-5.1200,-1.9400,0.0000,0.0000,-0.0000,1938.0000,1179.0000,1500.0000,2000.0000
233194.7650,2.0000,2000.0000,1000.0000,1384.0000,-188.0000,123.0000,-21.0000,1015.0000,559.0000,-5824.0000,-0.7199,0.6831,-0.0397,-0.1168,100.6100,-39.4500,-90.9800,9.8400,-5.1200,-1.9400,0.0000,0.0000,-0.0000,1938.0000,1179.0000,1500.0000,2000.0000
233211.7750,2.0000,2000.0000,1000.0000,1384.0000,-84.0000,81.0000,-48.0000,522.0000,351.0000,-7069.0000,-0.7057,0.6995,-0.0441,-0.1041,100.8000,-39.5200,-91.0200,9.8300,-4.6100,-1.8600,0.0000,0.0000,-0.0000,1938.0000,1179.0000,1500.0000,2000.0000
233228.6610,2.0000,2000.0000,1000.0000,1385.0000,12.0000,25.0000,-73.0000,173.0000,356.0000,-7572.0000,-0.7027,0.7041,-0.0420,-0.0934,100.9800,-39.5800,-91.0700,9.7800,-4.0000,-1.8400,0.0000,0.0000,-0.0000,1938.0000,1178.0000,1500.0000,2000.0000
233245.3370,2.0000,2000.0000,1000.0000,1385.0000,89.0000,-26.0000,-95.0000,570.0000,315.0000,-6777.0000,-0.7093,0.6990,-0.0331,-0.0854,101.1800,-39.6400,-91.1400,9.7300,-3.4600,-1.8400,0.0000,0.0000,-0.0000,1938.0000,1178.0000,1500.0000,2000.0000
233262.4440,2.0000,2000.0000,1000.0000,1385.0000,141.0000,-70.0000,-111.0000,833.0000,417.0000,-4663.0000,-0.7227,0.6864,-0.0178,-0.0797,101.4000,-39.7000,-91.2200,9.7400,-3.1200,-1.7700,0.0000,0.0000,-0.0000,1938.0000,1178.0000,1500.0000,2000.0000
233279.1800,2.0000,2000.0000,1000.0000,1385.0000,182.0000,-108.0000,-119.0000,801.0000,-135.0000,-2460.0000,-0.7400,0.6682,0.0021,-0.0767,101.6000,-39.7500,-91.3100,9.7400,-3.0700,-1.6500,0.0000,0.0000,-0.0000,1938.0000,1178.0000,1500.0000,2000.0000
233296.0980,2.0000,2000.0000,1000.0000,1385.0000,221.0000,-130.0000,-121.0000,632.0000,-320.0000,-312.0000,-0.7604,0.6444,0.0255,-0.0760,101.6000,-39.7500,-91.3100,9.7400,-3.0700,-1.6500,0.0000,0.0000,-0.0000,1938.0000,1178.0000,1500.0000,2000.0000
233312.9210,2.0000,2000.0000,1000.0000,1385.0000,246.0000,-137.0000,-117.0000,406.0000,-618.0000,1578.0000,-0.7826,0.6157,0.0498,-0.0768,101.7800,-39.8100,-91.3900,9.7000,-3.2800,-1.3700,0.0000,0.0000,-0.0000,1938.0000,1178.0000,1500.0000,2000.0000
233329.5770,2.0000,1998.0000,1857.0000,2000.0000,271.0000,-143.0000,-106.0000,664.0000,-802.0000,3415.0000,-0.8051,0.5833,0.0731,-0.0789,101.9600,-39.8600,-91.4500,9.6000,-3.6500,-1.0800,0.0000,0.0000,-0.0000,1017.0000,1374.0000,1500.0000,1999.0000
233346.4480,2.0000,1998.0000,1858.0000,2000.0000,286.0000,-149.0000,-88.0000,1024.0000,-1210.0000,5103.0000,-0.8276,0.5468,0.0955,-0.0829,102.1600,-39.9400,-91.4800,9.7000,-4.1100,-0.8500,0.0000,0.0000,-0.0000,1017.0000,1374.0000,1500.0000,1999.0000
233363.2690,2.0000,1998.0000,1858.0000,2000.0000,262.0000,-158.0000,-62.0000,1319.0000,-1685.0000,6631.0000,-0.8477,0.5096,0.1168,-0.0897,102.3900,-40.0400,-91.5000,9.8900,-4.6100,-0.7700,0.0000,0.0000,-0.0000,1017.0000,1374.0000,1500.0000,1999.0000
233379.9820,2.0000,1998.0000,1858.0000,2000.0000,200.0000,-166.0000,-26.0000,1429.0000,-1789.0000,7922.0000,-0.8620,0.4778,0.1367,-0.0997,102.6000,-40.1400,-91.5100,10.0000,-5.1300,-0.8600,0.0000,0.0000,-0.0000,1017.0000,1374.0000,1500.0000,1999.0000
233396.6770,2.0000,1998.0000,1858.0000,2000.0000,125.0000,-162.0000,13.0000,1435.0000,-1853.0000,9220.0000,-0.8698,0.4544,0.1553,-0.1134,102.6000,-40.1400,-91.5100,10.0000,-5.1300,-0.8600,0.0000,0.0000,-0.0000,1017.0000,1374.0000,1500.0000,1999.0000
233413.4300,2.0000,1998.0000,1736.0000,2000.0000,18.0000,-141.0000,56.0000,1732.0000,-1694.0000,10560.0000,-0.8703,0.4433,0.1712,-0.1297,102.8000,-40.2400,-91.5000,9.9800,-5.6500,-1.0800,0.0000,0.0000,-0.0000,1044.0000,1278.0000,1500.0000,1999.0000
233430.3060,2.0000,1998.0000,1735.0000,2000.0000,-90.0000,-105.0000,90.0000,1750.0000,-1671.0000,11444.0000,-0.8630,0.4475,0.1832,-0.1463,102.9900,-40.3500,-91.4900,9.8700,-6.2100,-1.4200,0.0000,0.0000,-0.0000,1044.0000,1278.0000,1500.0000,1999.0000
233447.2100,2.0000,1998.0000,1735.0000,2000.0000,-181.0000,-75.0000,117.0000,1363.0000,-1134.0000,10294.0000,-0.8489,0.4658,0.1904,-0.1617,103.2100,-40.4800,-91.4800,9.7700,-6.7500,-1.8100,0.0000,0.0000,-0.0000,1044.0000,1278.0000,1500.0000,1999.0000
233464.2770,2.0000,1998.0000,1735.0000,2000.0000,-236.0000,-49.0000,135.0000,1132.0000,-635.0000,8349.0000,-0.8288,0.4944,0.1943,-0.1757,103.4300,-40.6200,-91.4800,9.6700,-7.1800,-2.0500,0.0000,0.0000,-0.0000,1044.0000,1278.0000,1500.0000,1999.0000
233480.8460,2.0000,1998.0000,1735.0000,2000.0000,-272.0000,-40.0000,144.0000,984.0000,-515.0000,7043.0000,-0.8051,0.5274,0.1957,-0.1882,103.6400,-40.7500,-91.4700,9.6400,-7.4300,-2.1100,0.0000,0.0000,-0.0000,1044.0000,1278.0000,1500.0000,1999.0000
233497.8070,2.0000,1998.0000,1735.0000,2000.0000,-306.0000,-26.0000,154.0000,601.0000,-180.0000,6110.0000,-0.7766,0.5646,0.1957,-0.1998,103.6400,-40.7500,-91.4700,9.6400,-7.4300,-2.1100,0.0000,0.0000,-0.0000,1044.0000,1278.0000,1500.0000,1999.0000
233514.6110,2.0000,1998.0000,1735.0000,2000.0000,-338.0000,-17.0000,157.0000,769.0000,-23.0000,5441.0000,-0.7434,0.6046,0.1945,-0.2097,103.8400,-40.8800,-91.4500,9.6100,-7.5500,-2.0600,0.0000,0.0000,-0.0000,1044.0000,1278.0000,1500.0000,1999.0000
233531.1690,2.0000,1999.0000,1000.0000,1384.0000,-358.0000,-10.0000,157.0000,900.0000,208.0000,4960.0000,-0.7065,0.6452,0.1926,-0.2177,104.0200,-41.0100,-91.4300,9.6100,-7.6200,-1.9100,0.0000,0.0000,-0.0000,1938.0000,1179.0000,1500.0000,2000.0000
233547.9780,2.0000,2000.0000,1000.0000,1384.0000,-372.0000,-7.0000,151.0000,810.0000,142.0000,4579.0000,-0.6654,0.6859,0.1907,-0.2244,104.2400,-41.1600,-91.4100,9.4400,-7.8000,-1.6900,0.0000,0.0000,-0.0000,1938.0000,1179.0000,1500.0000,2000.0000
233564.6270,2.0000,2000.0000,1000.0000,1384.0000,-387.0000,-1.0000,143.0000,856.0000,256.0000,4503.0000,-0.6211,0.7256,0.1888,-0.2282,104.4500,-41.3100,-91.4000,9.2400,-7.9700,-1.4500,0.0000,0.0000,-0.0000,1938.0000,1179.0000,1500.0000,2000.0000
233581.4650,2.0000,2000.0000,1000.0000,1384.0000,-367.0000,-1.0000,126.0000,895.0000,549.0000,3807.0000,-0.5750,0.7625,0.1873,-0.2300,104.4500,-41.3100,-91.4000,9.2400,-7.9700,-1.4500,0.0000,0.0000,-0.0000,1938.0000,1179.0000,1500.0000,2000.0000
233598.2840,2.0000,2000.0000,1000.0000,1384.0000,-304.0000,-26.0000,96.0000,907.0000,1042.0000,2699.0000,-0.5321,0.7926,0.1874,-0.2315,104.6500,-41.4500,-91.3800,9.0600,-8.0900,-1.1200,0.0000,0.0000,-0.0000,1938.0000,1179.0000,1500.0000,2000.0000
233615.1240,2.0000,2000.0000,1000.0000,1384.0000,-214.0000,-45.0000,56.0000,738.0000,1093.0000,2134.0000,-0.4977,0.8132,0.1901,-0.2342,104.8300,-41.6000,-91.3600,8.9700,-8.0800,-0.7400,0.0000,0.0000,-0.0000,1938.0000,1179.0000,1500.0000,2000.0000
233632.1270,2.0000,2000.0000,1000.0000,1384.0000,-99.0000,-72.0000,16.0000,527.0000,678.0000,2643.0000,-0.4758,0.8232,0.1960,-0.2400,105.0100,-41.7300,-91.3400,8.9000,-7.9700,-0.3700,0.0000,0.0000,-0.0000,1938.0000,1179.0000,1500.0000,2000.0000
233648.7440,2.0000,2000.0000,1000.0000,1384.0000,4.0000,-74.0000,-23.0000,397.0000,603.0000,3276.0000,-0.4683,0.8235,0.2035,-0.2474,105.1700,-41.8600,-91.3000,8.7900,-7.8900,-0.0200,0.0000,0.0000,-0.0000,1938.0000,1179.0000,1500.0000,2000.0000
233665.5090,2.0000,2000.0000,1000.0000,1384.0000,82.0000,-84.0000,-57.0000,442.0000,589.0000,3909.0000,-0.4728,0.8159,0.2127,-0.2560,105.3300,-41.9800,-91.2700,8.6300,-7.8600,0.3500,0.0000,0.0000,-0.0000,1938.0000,1179.0000,1500.0000,2000.0000
233682.2520,2.0000,2000.0000,1000.0000,1384.0000,131.0000,-90.0000,-84.0000,576.0000,460.0000,4429.0000,-0.4854,0.8027,0.2233,-0.2648,105.3300,-41.9800,-91.2700,8.6300,-7.8600,0.3500,0.0000,0.0000,-0.0000,1938.0000,1179.0000,1500.0000,2000.0000
233699.4000,2.0000,2000.0000,1000.0000,1384.0000,172.0000,-82.0000,-105.0000,547.0000,507.0000,4155.0000,-0.5046,0.7846,0.2350,-0.2731,105.4800,-42.0900,-91.2300,8.4200,-7.8900,0.7500,0.0000,0.0000,-0.0000,1938.0000,1179.0000,1500.0000,2000.0000
233716.0420,2.0000,2000.0000,1000.0000,1384.0000,200.0000,-85.0000,-119.0000,547.0000,153.0000,4300.0000,-0.5272,0.7632,0.2466,-0.2807,105.6100,-42.2000,-91.1800,8.2100,-7.9300,1.1300,0.0000,0.0000,-0.0000,1938.0000,1179.0000,1500.0000,2000.0000
233732.9430,2.0000,1998.0000,1477.0000,1355.0000,225.0000,-82.0000,-126.0000,737.0000,-153.0000,4549.0000,-0.5528,0.7382,0.2579,-0.2880,105.7400,-42.3100,-91.1300,8.0000,-7.9500,1.4600,0.0000,0.0000,-0.0000,1586.0000,1564.0000,1500.0000,1999.0000
233750.0730,2.0000,1998.0000,1478.0000,1354.0000,251.0000,-81.0000,-124.0000,929.0000,-463.0000,4836.0000,-0.5809,0.7094,0.2681,-0.2957,105.8500,-42.4000,-91.0700,7.7900,-7.9800,1.7600,0.0000,0.0000,-0.0000,1586.0000,1564.0000,1500.0000,1999.0000
233766.8980,2.0000,1998.0000,1478.0000,1354.0000,251.0000,-67.0000,-110.0000,929.0000,-889.0000,5526.0000,-0.6091,0.6795,0.2751,-0.3027,105.9400,-42.4900,-91.0000,7.5600,-8.0400,1.9900,0.0000,0.0000,-0.0000,1586.0000,1564.0000,1500.0000,1999.0000
233783.8850,2.0000,1998.0000,1478.0000,1354.0000,233.0000,-47.0000,-86.0000,983.0000,-1260.0000,6322.0000,-0.6352,0.6507,0.2787,-0.3088,105.9400,-42.4900,-91.0000,7.5600,-8.0400,1.9900,0.0000,0.0000,-0.0000,1586.0000,1564.0000,1500.0000,1999.0000
233801.0520,2.0000,1998.0000,1478.0000,1354.0000,213.0000,-21.0000,-55.0000,1351.0000,-1444.0000,6398.0000,-0.6584,0.6247,0.2783,-0.3144,106.0200,-42.5700,-90.9200,7.2900,-8.1300,2.1500,0.0000,0.0000,-0.0000,1586.0000,1564.0000,1500.0000,1999.0000
233818.0900,2.0000,1998.0000,1499.0000,1383.0000,185.0000,-4.0000,-19.0000,950.0000,-1673.0000,5509.0000,-0.6778,0.6027,0.2736,-0.3201,106.1000,-42.6500,-90.8400,7.0200,-8.2600,2.2200,0.0000,0.0000,-0.0000,1561.0000,1560.0000,1500.0000,1999.0000
233835.1830,2.0000,1998.0000,1499.0000,1383.0000,166.0000,9.0000,13.0000,699.0000,-1717.0000,4290.0000,-0.6934,0.5851,0.2650,-0.3265,106.1800,-42.7400,-90.7600,6.8200,-8.3100,2.2100,0.0000,0.0000,-0.0000,1561.0000,1560.0000,1500.0000,1999.0000
233852.1700,2.0000,1998.0000,1499.0000,1383.0000,155.0000,21.0000,42.0000,1104.0000,-1705.0000,3643.0000,-0.7063,0.5702,0.2534,-0.3345,106.2400,-42.8200,-90.6800,6.7300,-8.2600,2.1700,0.0000,0.0000,-0.0000,1561.0000,1560.0000,1500.0000,1999.0000
233869.2570,2.0000,1998.0000,1499.0000,1383.0000,151.0000,28.0000,68.0000,1240.0000,-1517.0000,3780.0000,-0.7170,0.5572,0.2385,-0.3441,106.3100,-42.9000,-90.6100,6.7000,-8.2100,2.1200,0.0000,0.0000,-0.0000,1561.0000,1560.0000,1500.0000,1999.0000
233886.0350,2.0000,1998.0000,1499.0000,1383.0000,147.0000,40.0000,90.0000,797.0000,-1129.0000,3514.0000,-0.7260,0.5460,0.2210,-0.3549,106.3100,-42.9000,-90.6100,6.7000,-8.2100,2.1200,0.0000,0.0000,-0.0000,1561.0000,1560.0000,1500.0000,1999.0000
233903.1310,2.0000,1998.0000,1499.0000,1383.0000,148.0000,46.0000,107.0000,819.0000,-933.0000,2925.0000,-0.7339,0.5353,0.2005,-0.3670,106.3700,-42.9800,-90.5400,6.6700,-8.1600,2.1000,0.0000,0.0000,-0.0000,1561.0000,1560.0000,1500.0000,1999.0000
233920.0570,2.0000,1998.0000,1499.0000,1383.0000,137.0000,52.0000,121.0000,873.0000,-807.0000,2246.0000,-0.7401,0.5256,0.1784,-0.3797,106.4400,-43.0500,-90.4700,6.6700,-8.0800,2.1000,0.0000,0.0000,-0.0000,1561.0000,1560.0000,1500.0000,1999.0000
233936.9100,2.0000,1999.0000,1239.0000,1239.0000,124.0000,65.0000,132.0000,1037.0000,-542.0000,839.0000,-0.7442,0.5178,0.1549,-0.3925,106.5000,-43.1300,-90.4000,6.7100,-7.9800,2.1400,0.0000,0.0000,-0.0000,1763.0000,1501.0000,1500.0000,2000.0000
233953.8970,2.0000,2000.0000,1238.0000,1238.0000,108.0000,71.0000,138.0000,1182.0000,-574.0000,-854.0000,-0.7460,0.5116,0.1310,-0.4056,106.5600,-43.1900,-90.3400,6.8700,-7.7800,2.2500,0.0000,0.0000,-0.0000,1763.0000,1501.0000,1500.0000,2000.0000
233970.7580,2.0000,2000.0000,1238.0000,1238.0000,102.0000,82.0000,140.0000,899.0000,-124.0000,-2476.0000,-0.7462,0.5076,0.1061,-0.4175,106.6000,-43.2200,-90.2600,7.1400,-7.4200,2.4200,0.0000,0.0000,-0.0000,1763.0000,1501.0000,1500.0000,2000.0000
233987.7590,2.0000,2000.0000,1238.0000,1238.0000,144.0000,78.0000,129.0000,417.0000,233.0000,-4383.0000,-0.7475,0.5009,0.0798,-0.4289,106.6200,-43.2200,-90.1900,7.4400,-6.9000,2.6900,0.0000,0.0000,-0.0000,1763.0000,1501.0000,1500.0000,2000.0000
234005.0160,2.0000,2000.0000,1238.0000,1238.0000,190.0000,63.0000,106.0000,341.0000,895.0000,-6178.0000,-0.7528,0.4878,0.0518,-0.4389,106.6200,-43.2200,-90.1900,7.4400,-6.9000,2.6900,0.0000,0.0000,-0.0000,1763.0000,1501.0000,1500.0000,2000.0000
234021.8040,2.0000,2000.0000,1000.0000,1320.0000,233.0000,30.0000,71.0000,228.0000,1463.0000,-6890.0000,-0.7620,0.4676,0.0272,-0.4472,106.6500,-43.2000,-90.1200,7.7500,-6.2800,2.9900,0.0000,0.0000,-0.0000,1908.0000,1271.0000,1500.0000,2000.0000
234038.6030,2.0000,2000.0000,1000.0000,1321.0000,261.0000,-2.0000,48.0000,372.0000,979.0000,-6226.0000,-0.7743,0.4408,0.0058,-0.4540,106.6800,-43.1700,-90.0700,8.0000,-5.6500,3.3800,0.0000,0.0000,-0.0000,1908.0000,1271.0000,1500.0000,2000.0000
234055.4140,2.0000,2000.0000,1000.0000,1321.0000,290.0000,-31.0000,26.0000,307.0000,605.0000,-5669.0000,-0.7887,0.4082,-0.0130,-0.4595,106.8700,-43.4700,-90.0000,7.6200,-6.4400,3.6900,0.0000,0.0000,-0.0000,1908.0000,1271.0000,1500.0000,2000.0000
234072.4300,2.0000,2000.0000,1000.0000,1321.0000,309.0000,-64.0000,0.0000,553.0000,856.0000,-4409.0000,-0.8050,0.3694,-0.0283,-0.4633,107.0600,-43.7900,-89.9500,7.1800,-7.2600,4.0300,0.0000,0.0000,-0.0000,1908.0000,1271.0000,1500.0000,2000.0000
234089.1690,2.0000,2000.0000,1000.0000,1321.0000,337.0000,-91.0000,-22.0000,306.0000,851.0000,-2526.0000,-0.8225,0.3257,-0.0403,-0.4645,107.2200,-44.1000,-89.9100,6.7100,-8.0900,4.3500,0.0000,0.0000,-0.0000,1908.0000,1271.0000,1500.0000,2000.0000
234106.2890,2.0000,2000.0000,1000.0000,1321.0000,352.0000,-91.0000,-40.0000,243.0000,530.0000,-370.0000,-0.8407,0.2763,-0.0508,-0.4629,107.2200,-44.1000,-89.9100,6.7100,-8.0900,4.3500,0.0000,0.0000,-0.0000,1908.0000,1271.0000,1500.0000,2000.0000
234123.0990,2.0000,2000.0000,1000.0000,1321.0000,365.0000,-89.0000,-53.0000,512.0000,327.0000,1411.0000,-0.8578,0.2258,-0.0619,-0.4576,107.3600,-44.4100,-89.8700,6.2200,-8.9300,4.6600,0.0000,0.0000,-0.0000,1908.0000,1271.0000,1500.0000,2000.0000
234140.2260,2.0000,1998.0000,2000.0000,1786.0000,373.0000,-79.0000,-60.0000,313.0000,61.0000,2365.0000,-0.8734,0.1733,-0.0745,-0.4491,107.4900,-44.7100,-89.8100,5.7700,-9.7400,4.8500,0.0000,0.0000,-0.0000,1000.0000,1716.0000,1500.0000,1999.0000
234157.1400,2.0000,1998.0000,2000.0000,1786.0000,388.0000,-70.0000,-63.0000,171.0000,-348.0000,3333.0000,-0.8865,0.1201,-0.0883,-0.4380,107.6200,-45.0900,-89.7300,5.6300,-10.5700,4.9700,0.0000,0.0000,-0.0000,1000.0000,1716.0000,1500.0000,1999.0000
234173.7840,2.0000,1998.0000,2000.0000,1786.0000,377.0000,-53.0000,-59.0000,380.0000,-450.0000,3811.0000,-0.8966,0.0669,-0.1039,-0.4252,107.7500,-45.4800,-89.6400,5.5600,-11.2700,5.0200,0.0000,0.0000,-0.0000,1000.0000,1716.0000,1500.0000,1999.0000
234190.5080,2.0000,1998.0000,2000.0000,1786.0000,307.0000,-59.0000,-48.0000,618.0000,-428.0000,3935.0000,-0.9033,0.0190,-0.1172,-0.4123,107.8700,-45.8500,-89.5400,5.5400,-11.8400,5.0000,0.0000,0.0000,-0.0000,1000.0000,1716.0000,1500.0000,1999.0000
234207.4340,2.0000,1998.0000,2000.0000,1786.0000,195.0000,-64.0000,-27.0000,464.0000,-513.0000,3954.0000,-0.9067,-0.0178,-0.1241,-0.4028,107.8700,-45.8500,-89.5400,5.5400,-11.8400,5.0000,0.0000,0.0000,-0.0000,1000.0000,1716.0000,1500.0000,1999.0000
234224.2540,2.0000,1998.0000,2000.0000,1786.0000,62.0000,-66.0000,-1.0000,305.0000,-749.0000,4611.0000,-0.9081,-0.0387,-0.1230,-0.3985,107.9800,-46.2000,-89.4400,5.5600,-12.2700,4.9700,0.0000,0.0000,-0.0000,1000.0000,1716.0000,1500.0000,1999.0000
234240.7580,2.0000,1998.0000,2000.0000,1786.0000,-74.0000,-43.0000,24.0000,201.0000,-655.0000,5176.0000,-0.9083,-0.0408,-0.1151,-0.4001,108.0800,-46.5400,-89.3300,5.5900,-12.6000,4.8900,0.0000,0.0000,-0.0000,1000.0000,1716.0000,1500.0000,1999.0000
234257.4580,2.0000,1998.0000,2000.0000,1786.0000,-190.0000,-2.0000,49.0000,346.0000,-765.0000,6223.0000,-0.9072,-0.0249,-0.1036,-0.4071,108.2100,-46.9400,-89.2100,5.7500,-12.8700,4.7200,0.0000,0.0000,-0.0000,1000.0000,1716.0000,1500.0000,1999.0000
234274.1820,2.0000,1998.0000,2000.0000,1786.0000,-297.0000,46.0000,69.0000,532.0000,-599.0000,6390.0000,-0.9035,0.0082,-0.0915,-0.4185,108.3400,-47.3100,-89.0900,5.9100,-13.1000,4.4300,0.0000,0.0000,-0.0000,1000.0000,1716.0000,1500.0000,1999.0000
234290.9510,2.0000,1998.0000,2000.0000,1786.0000,-368.0000,96.0000,79.0000,-7.0000,-177.0000,4792.0000,-0.8964,0.0560,-0.0802,-0.4324,108.4600,-47.6600,-88.9700,5.9900,-13.3400,4.1500,0.0000,0.0000,-0.0000,1000.0000,1716.0000,1500.0000,1999.0000
234307.9230,2.0000,1999.0000,1751.0000,1369.0000,-426.0000,138.0000,84.0000,-40.0000,172.0000,2482.0000,-0.8846,0.1154,-0.0712,-0.4463,108.4600,-47.6600,-88.9700,5.9900,-13.3400,4.1500,0.0000,0.0000,-0.0000,1635.0000,1684.0000,1500.0000,2000.0000
234324.6370,2.0000,2000.0000,1549.0000,1185.0000,-461.0000,172.0000,81.0000,-46.0000,542.0000,334.0000,-0.8678,0.1818,-0.0632,-0.4581,108.5800,-48.0000,-88.8600,5.9300,-13.5300,4.1000,0.0000,0.0000,-0.0000,1635.0000,1684.0000,1500.0000,2000.0000
234341.6340,2.0000,2000.0000,1549.0000,1185.0000,-472.0000,187.0000,76.0000,394.0000,843.0000,-1410.0000,-0.8455,0.2532,-0.0567,-0.4667,108.6800,-48.3200,-88.7400,5.8300,-13.6700,4.2600,0.0000,0.0000,-0.0000,1635.0000,1684.0000,1500.0000,2000.0000
234358.4610,2.0000,2000.0000,1549.0000,1185.0000,-443.0000,183.0000,63.0000,223.0000,650.0000,-3703.0000,-0.8196,0.3220,-0.0505,-0.4712,108.8100,-48.7100,-88.6200,5.7800,-13.8000,4.5800,0.0000,0.0000,-0.0000,1635.0000,1684.0000,1500.0000,2000.0000
234375.3660,2.0000,2000.0000,1549.0000,1185.0000,-367.0000,180.0000,40.0000,169.0000,890.0000,-5150.0000,-0.7932,0.3833,-0.0471,-0.4709,108.9400,-49.0900,-88.5000,5.8000,-13.7300,4.9700,0.0000,0.0000,-0.0000,1635.0000,1684.0000,1500.0000,2000.0000
234392.4060,2.0000,2000.0000,1549.0000,1185.0000,-244.0000,171.0000,9.0000,546.0000,1327.0000,-6074.0000,-0.7712,0.4312,-0.0467,-0.4659,109.0500,-49.4400,-88.3900,5.8600,-13.5400,5.3100,0.0000,0.0000,-0.0000,1635.0000,1684.0000,1500.0000,2000.0000
234409.1320,2.0000,2000.0000,1549.0000,1185.0000,-100.0000,164.0000,-23.0000,634.0000,1307.0000,-6550.0000,-0.7593,0.4615,-0.0530,-0.4558,109.0500,-49.4400,-88.3900,5.8600,-13.5400,5.3100,0.0000,0.0000,-0.0000,1635.0000,1684.0000,1500.0000,2000.0000
234426.1980,2.0000,1998.0000,1485.0000,1339.0000,23.0000,165.0000,-48.0000,557.0000,1117.0000,-6629.0000,-0.7575,0.4769,-0.0666,-0.4408,109.1600,-49.7600,-88.3000,5.9400,-13.2800,5.6800,0.0000,0.0000,-0.0000,1586.0000,1565.0000,1500.0000,1999.0000
234443.2040,2.0000,1998.0000,1479.0000,1353.0000,88.0000,153.0000,-68.0000,713.0000,823.0000,-7203.0000,-0.7633,0.4812,-0.0836,-0.4229,109.2700,-50.0500,-88.2200,6.0200,-12.9800,6.0000,0.0000,0.0000,-0.0000,1586.0000,1565.0000,1500.0000,1999.0000
234460.3000,2.0000,1998.0000,1479.0000,1353.0000,129.0000,128.0000,-78.0000,310.0000,671.0000,-7870.0000,-0.7737,0.4779,-0.1007,-0.4036,109.4000,-50.4000,-88.1600,6.1500,-12.7200,6.3300,0.0000,0.0000,-0.0000,1586.0000,1565.0000,1500.0000,1999.0000
234477.0600,2.0000,1998.0000,1479.0000,1353.0000,139.0000,76.0000,-82.0000,538.0000,404.0000,-8709.0000,-0.7857,0.4698,-0.1144,-0.3858,109.5400,-50.7300,-88.1000,6.2400,-12.4000,6.7000,0.0000,0.0000,-0.0000,1586.0000,1565.0000,1500.0000,1999.0000
234494.1930,2.0000,1998.0000,1479.0000,1353.0000,123.0000,24.0000,-81.0000,540.0000,4.0000,-8430.0000,-0.7982,0.4586,-0.1211,-0.3715,109.6600,-51.0400,-88.0600,6.3300,-12.0400,7.0400,0.0000,0.0000,-0.0000,1586.0000,1565.0000,1500.0000,1999.0000
234510.9670,2.0000,1998.0000,1479.0000,1353.0000,114.0000,-24.0000,-73.0000,566.0000,-295.0000,-6390.0000,-0.8097,0.4464,-0.1218,-0.3609,109.6600,-51.0400,-88.0600,6.3300,-12.0400,7.0400,0.0000,0.0000,-0.0000,1586.0000,1565.0000,1500.0000,1999.0000
234528.0250,2.0000,1998.0000,2000.0000,1786.0000,117.0000,-35.0000,-58.0000,266.0000,-852.0000,-4280.0000,-0.8210,0.4321,-0.1192,-0.3537,109.7800,-51.3200,-88.0200,6.3600,-11.7900,7.3500,0.0000,0.0000,-0.0000,1000.0000,1716.0000,1500.0000,1999.0000
234544.7650,2.0000,1998.0000,2000.0000,1786.0000,120.0000,-29.0000,-38.0000,335.0000,-1066.0000,-2232.0000,-0.8311,0.4171,-0.1184,-0.3482,109.8900,-51.5700,-88.0000,6.3800,-11.7400,7.5700,0.0000,0.0000,-0.0000,1000.0000,1716.0000,1500.0000,1999.0000
234561.4960,2.0000,1998.0000,2000.0000,1786.0000,82.0000,-5.0000,-13.0000,444.0000,-1238.0000,-666.0000,-0.8389,0.4038,-0.1199,-0.3448,110.0400,-51.9000,-87.9500,6.6200,-11.9100,7.8500,0.0000,0.0000,-0.0000,1000.0000,1716.0000,1500.0000,1999.0000
234578.2210,2.0000,1998.0000,2000.0000,1786.0000,-27.0000,10.0000,17.0000,362.0000,-1281.0000,204.0000,-0.8404,0.3999,-0.1217,-0.3450,110.1900,-52.2100,-87.8900,6.8300,-12.1700,8.0900,0.0000,0.0000,-0.0000,1000.0000,1716.0000,1500.0000,1999.0000
234595.2340,2.0000,1998.0000,2000.0000,1786.0000,-159.0000,33.0000,53.0000,-46.0000,-1236.0000,610.0000,-0.8322,0.4119,-0.1215,-0.3507,110.3300,-52.5100,-87.8000,6.9900,-12.4200,8.4000,0.0000,0.0000,-0.0000,1000.0000,1716.0000,1500.0000,1999.0000
234611.7000,2.0000,1998.0000,2000.0000,1786.0000,-276.0000,58.0000,84.0000,72.0000,-1260.0000,496.0000,-0.8141,0.4392,-0.1197,-0.3607,110.3300,-52.5100,-87.8000,6.9900,-12.4200,8.4000,0.0000,0.0000,-0.0000,1000.0000,1716.0000,1500.0000,1999.0000
234628.4970,2.0000,1998.0000,1434.0000,1386.0000,-370.0000,88.0000,104.0000,-136.0000,-1155.0000,-223.0000,-0.7855,0.4796,-0.1170,-0.3731,110.4700,-52.7900,-87.7000,7.1100,-12.6300,8.6500,0.0000,0.0000,-0.0000,1593.0000,1526.0000,1500.0000,1999.0000
234645.3680,2.0000,1998.0000,1433.0000,1385.0000,-422.0000,104.0000,117.0000,-103.0000,-685.0000,-2279.0000,-0.7474,0.5288,-0.1135,-0.3859,110.5900,-53.0600,-87.5800,7.2100,-12.7600,8.9300,0.0000,0.0000,-0.0000,1593.0000,1526.0000,1500.0000,1999.0000
234662.2680,2.0000,1998.0000,1433.0000,1385.0000,-401.0000,98.0000,118.0000,139.0000,-154.0000,-4305.0000,-0.7045,0.5774,-0.1096,-0.3978,110.7700,-53.3800,-87.4300,7.5700,-12.5100,9.1500,0.0000,0.0000,-0.0000,1593.0000,1526.0000,1500.0000,1999.0000
234679.3050,2.0000,1998.0000,1433.0000,1385.0000,-323.0000,86.0000,109.0000,-267.0000,257.0000,-5120.0000,-0.6635,0.6183,-0.1068,-0.4076,110.9500,-53.6700,-87.2900,7.9300,-12.0900,9.3900,0.0000,0.0000,-0.0000,1593.0000,1526.0000,1500.0000,1999.0000
234696.0390,2.0000,1998.0000,1433.0000,1385.0000,-217.0000,79.0000,91.0000,-297.0000,500.0000,-5080.0000,-0.6308,0.6473,-0.1069,-0.4142,111.1200,-53.9400,-87.1500,8.2400,-11.6300,9.5300,0.0000,0.0000,-0.0000,1593.0000,1526.0000,1500.0000,1999.0000
234712.9520,2.0000,1998.0000,1433.0000,1385.0000,-106.0000,58.0000,49.0000,-73.0000,1242.0000,-5198.0000,-0.6093,0.6655,-0.1099,-0.4169,111.1200,-53.9400,-87.1500,8.2400,-11.6300,9.5300,0.0000,0.0000,-0.0000,1593.0000,1526.0000,1500.0000,1999.0000
234729.8040,2.0000,1998.0000,1283.0000,1415.0000,-23.0000,32.0000,8.0000,163.0000,1211.0000,-4888.0000,-0.6007,0.6731,-0.1117,-0.4167,111.2900,-54.1800,-87.0200,8.4900,-11.2100,9.7300,0.0000,0.0000,-0.0000,1865.0000,1118.0000,1500.0000,1999.0000
234746.5170,2.0000,1998.0000,1000.0000,1518.0000,22.0000,35.0000,-16.0000,56.0000,637.0000,-4238.0000,-0.6003,0.6750,-0.1136,-0.4136,111.5000,-54.4600,-86.8600,8.6000,-10.6100,10.0000,0.0000,0.0000,-0.0000,1865.0000,1118.0000,1500.0000,1999.0000
234763.5300,2.0000,1998.0000,1000.0000,1518.0000,57.0000,20.0000,-40.0000,306.0000,615.0000,-4042.0000,-0.6053,0.6737,-0.1154,-0.4079,111.7000,-54.7100,-86.7000,8.6900,-10.1400,10.2900,0.0000,0.0000,-0.0000,1865.0000,1118.0000,1500.0000,1999.0000
234780.5510,2.0000,1998.0000,1000.0000,1518.0000,87.0000,-4.0000,-65.0000,27.0000,899.0000,-4364.0000,-0.6151,0.6690,-0.1147,-0.4012,111.8900,-54.9300,-86.5300,8.7500,-9.7300,10.6100,0.0000,0.0000,-0.0000,1865.0000,1118.0000,1500.0000,1999.0000
234797.3570,2.0000,1998.0000,1000.0000,1518.0000,110.0000,-42.0000,-83.0000,-359.0000,738.0000,-4544.0000,-0.6288,0.6602,-0.1105,-0.3956,112.0700,-55.1300,-86.3500,8.7600,-9.3100,10.9400,0.0000,0.0000,-0.0000,1865.0000,1118.0000,1500.0000,1999.0000
234814.2850,2.0000,1998.0000,1000.0000,1518.0000,138.0000,-90.0000,-102.0000,-199.0000,249.0000,-3420.0000,-0.6472,0.6459,-0.1020,-0.3920,112.0700,-55.1300,-86.3500,8.7600,-9.3100,10.9400,0.0000,0.0000,-0.0000,1865.0000,1118.0000,1500.0000,1999.0000
234830.9440,2.0000,1998.0000,1000.0000,1514.0000,156.0000,-118.0000,-114.0000,-393.0000,30.0000,-1206.0000,-0.6681,0.6275,-0.0898,-0.3895,112.2400,-55.3100,-86.1500,8.7600,-8.9900,11.3700,0.0000,0.0000,-0.0000,1866.0000,1121.0000,1500.0000,1999.0000
234847.5850,2.0000,1998.0000,1000.0000,1514.0000,181.0000,-161.0000,-119.0000,-488.0000,-539.0000,1235.0000,-0.6914,0.6046,-0.0750,-0.3883,112.3900,-55.4800,-85.9400,8.7000,-8.8700,11.7600,0.0000,0.0000,-0.0000,1866.0000,1121.0000,1500.0000,1999.0000
234864.3440,2.0000,1998.0000,1000.0000,1514.0000,208.0000,-184.0000,-113.0000,-125.0000,-839.0000,4447.0000,-0.7164,0.5760,-0.0582,-0.3893,112.5900,-55.6800,-85.6800,8.6300,-8.8000,12.1000,0.0000,0.0000,-0.0000,1866.0000,1121.0000,1500.0000,1999.0000
234881.3780,2.0000,1998.0000,1000.0000,1514.0000,237.0000,-212.0000,-103.0000,248.0000,-1447.0000,7599.0000,-0.7428,0.5411,-0.0406,-0.3922,112.7800,-55.8800,-85.4000,8.4900,-9.0400,12.3200,0.0000,0.0000,-0.0000,1866.0000,1121.0000,1500.0000,1999.0000
234898.0290,2.0000,1998.0000,1000.0000,1514.0000,256.0000,-223.0000,-78.0000,406.0000,-1845.0000,10185.0000,-0.7680,0.5018,-0.0240,-0.3973,112.7800,-55.8800,-85.4000,8.4900,-9.0400,12.3200,0.0000,0.0000,-0.0000,1866.0000,1121.0000,1500.0000,1999.0000
234915.0430,2.0000,1998.0000,1000.0000,1514.0000,265.0000,-219.0000,-46.0000,627.0000,-2015.0000,12641.0000,-0.7908,0.4586,-0.0098,-0.4052,112.9500,-56.0600,-85.1100,8.2900,-9.4900,12.2900,0.0000,0.0000,-0.0000,1866.0000,1121.0000,1500.0000,1999.0000
234931.8300,2.0000,1998.0000,1706.0000,2000.0000,267.0000,-208.0000,-20.0000,1006.0000,-1850.0000,14885.0000,-0.8102,0.4143,0.0012,-0.4146,113.1100,-56.2500,-84.8000,8.0600,-10.0000,12.0500,0.0000,0.0000,-0.0000,1000.0000,1206.0000,1500.0000,1999.0000
234948.6420,2.0000,1998.0000,1706.0000,2000.0000,245.0000,-181.0000,-3.0000,1107.0000,-1679.0000,16542.0000,-0.8260,0.3711,0.0090,-0.4242,113.3000,-56.4700,-84.4800,7.8500,-10.4600,11.5200,0.0000,0.0000,-0.0000,1000.0000,1206.0000,1500.0000,1999.0000
234965.1840,2.0000,1998.0000,1706.0000,2000.0000,183.0000,-150.0000,13.0000,1036.0000,-1368.0000,16462.0000,-0.8368,0.3349,0.0151,-0.4329,113.4800,-56.6800,-84.1600,7.6300,-10.8600,10.7400,0.0000,0.0000,-0.0000,1000.0000,1206.0000,1500.0000,1999.0000
234981.9450,2.0000,1998.0000,1706.0000,2000.0000,109.0000,-115.0000,30.0000,898.0000,-1183.0000,15708.0000,-0.8425,0.3086,0.0210,-0.4412,113.6400,-56.8900,-83.8500,7.4200,-11.0900,9.8400,0.0000,0.0000,-0.0000,1000.0000,1206.0000,1500.0000,1999.0000
234999.1560,2.0000,1998.0000,1706.0000,2000.0000,27.0000,-79.0000,46.0000,702.0000,-1380.0000,15105.0000,-0.8432,0.2935,0.0267,-0.4496,113.6400,-56.8900,-83.8500,7.4200,-11.0900,9.8400,0.0000,0.0000,-0.0000,1000.0000,1206.0000,1500.0000,1999.0000
235015.7090,2.0000,1998.0000,1706.0000,2000.0000,-66.0000,-33.0000,61.0000,602.0000,-1232.0000,13966.0000,-0.8388,0.2924,0.0326,-0.4581,113.7800,-57.0900,-83.5700,7.2300,-11.2300,8.9200,0.0000,0.0000,-0.0000,1000.0000,1206.0000,1500.0000,1999.0000
235032.7430,2.0000,1998.0000,1000.0000,1575.0000,-159.0000,14.0000,75.0000,321.0000,-907.0000,11959.0000,-0.8293,0.3063,0.0383,-0.4659,113.9200,-57.2900,-83.3200,7.0100,-11.3800,8.0200,0.0000,0.0000,-0.0000,1808.0000,1118.0000,1500.0000,1999.0000
235049.4960,2.0000,1998.0000,1000.0000,1575.0000,-202.0000,34.0000,93.0000,447.0000,-388.0000,8709.0000,-0.8151,0.3312,0.0434,-0.4733,114.0800,-57.5200,-83.0900,6.6600,-11.5100,7.3200,0.0000,0.0000,-0.0000,1808.0000,1118.0000,1500.0000,1999.0000
235066.3030,2.0000,1998.0000,1000.0000,1575.0000,-194.0000,21.0000,100.0000,354.0000,-258.0000,6196.0000,-0.7984,0.3579,0.0494,-0.4817,114.2300,-57.7300,-82.8500,6.3800,-11.4700,6.9800,0.0000,0.0000,-0.0000,1808.0000,1118.0000,1500.0000,1999.0000
235082.9480,2.0000,1998.0000,1000.0000,1575.0000,-135.0000,-8.0000,96.0000,129.0000,-216.0000,4550.0000,-0.7826,0.3783,0.0552,-0.4912,114.3600,-57.9300,-82.6100,6.1800,-11.2700,6.8800,0.0000,0.0000,-0.0000,1808.0000,1118.0000,1500.0000,1999.0000
235099.5990,2.0000,1998.0000,1000.0000,1575.0000,-63.0000,-51.0000,82.0000,-15.0000,-85.0000,3783.0000,-0.7706,0.3883,0.0602,-0.5017,114.3600,-57.9300,-82.6100,6.1800,-11.2700,6.8800,0.0000,0.0000,-0.0000,1808.0000,1118.0000,1500.0000,1999.0000
235116.4510,2.0000,2000.0000,1000.0000,1417.0000,8.0000,-90.0000,54.0000,-238.0000,62.0000,3810.0000,-0.7638,0.3862,0.0661,-0.5130,114.4800,-58.1100,-82.3800,6.0300,-11.0100,6.9000,0.0000,0.0000,-0.0000,1920.0000,1165.0000,1500.0000,2000.0000
235133.2700,2.0000,2000.0000,1000.0000,1416.0000,49.0000,-131.0000,17.0000,-43.0000,454.0000,5160.0000,-0.7620,0.3744,0.0742,-0.5232,114.6000,-58.2900,-82.1400,5.8600,-10.7700,6.9300,0.0000,0.0000,-0.0000,1920.0000,1165.0000,1500.0000,2000.0000
235150.1770,2.0000,2000.0000,1000.0000,1416.0000,88.0000,-151.0000,-6.0000,109.0000,349.0000,7122.0000,-0.7640,0.3558,0.0843,-0.5316,114.7300,-58.4900,-81.9100,5.5800,-10.7400,6.8800,0.0000,0.0000,-0.0000,1920.0000,1165.0000,1500.0000,2000.0000
235167.1440,2.0000,2000.0000,1000.0000,1416.0000,125.0000,-152.0000,-25.0000,248.0000,-299.0000,9110.0000,-0.7691,0.3311,0.0941,-0.5386,114.8500,-58.6800,-81.6900,5.2400,-10.8100,6.6400,0.0000,0.0000,-0.0000,1920.0000,1165.0000,1500.0000,2000.0000
235184.0190,2.0000,2000.0000,1000.0000,1416.0000,172.0000,-132.0000,-42.0000,408.0000,-231.0000,10125.0000,-0.7772,0.3027,0.0996,-0.5426,114.9600,-58.8600,-81.4700,4.8800,-10.9100,6.2000,0.0000,0.0000,-0.0000,1920.0000,1165.0000,1500.0000,2000.0000
235200.6770,2.0000,2000.0000,1000.0000,1416.0000,207.0000,-115.0000,-53.0000,171.0000,-219.0000,10360.0000,-0.7877,0.2705,0.1007,-0.5443,114.9600,-58.8600,-81.4700,4.8800,-10.9100,6.2000,0.0000,0.0000,-0.0000,1920.0000,1165.0000,1500.0000,2000.0000
235217.2210,2.0000,2000.0000,1000.0000,1416.0000,230.0000,-100.0000,-62.0000,426.0000,-311.0000,10560.0000,-0.7991,0.2363,0.0976,-0.5442,115.0500,-59.0400,-81.2700,4.5200,-10.9700,5.6600,0.0000,0.0000,-0.0000,1920.0000,1165.0000,1500.0000,2000.0000
235233.9100,2.0000,1998.0000,2000.0000,1787.0000,243.0000,-82.0000,-65.0000,347.0000,-270.0000,9945.0000,-0.8105,0.2006,0.0914,-0.5426,115.1400,-59.2300,-81.0800,4.2000,-11.0500,5.0400,0.0000,0.0000,-0.0000,1000.0000,1715.0000,1500.0000,1999.0000
235250.9160,2.0000,1998.0000,2000.0000,1787.0000,243.0000,-72.0000,-65.0000,281.0000,-378.0000,9247.0000,-0.8217,0.1641,0.0827,-0.5394,115.2300,-59.4400,-80.9100,3.9000,-11.2100,4.4300,0.0000,0.0000,-0.0000,1000.0000,1715.0000,1500.0000,1999.0000
235267.7980,2.0000,1998.0000,2000.0000,1787.0000,215.0000,-74.0000,-60.0000,419.0000,-648.0000,8912.0000,-0.8312,0.1293,0.0745,-0.5355,115.3200,-59.6500,-80.7500,3.7000,-11.2900,3.8500,0.0000,0.0000,-0.0000,1000.0000,1715.0000,1500.0000,1999.0000
235284.6640,2.0000,1998.0000,2000.0000,1787.0000,143.0000,-82.0000,-46.0000,383.0000,-718.0000,8490.0000,-0.8381,0.1006,0.0707,-0.5315,115.4000,-59.8500,-80.6100,3.6000,-11.3000,3.2800,0.0000,0.0000,-0.0000,1000.0000,1715.0000,1500.0000,1999.0000
235301.5860,2.0000,1998.0000,2000.0000,1787.0000,51.0000,-90.0000,-26.0000,408.0000,-681.0000,8595.0000,-0.8416,0.0815,0.0744,-0.5287,115.4000,-59.8500,-80.6100,3.6000,-11.3000,3.2800,0.0000,0.0000,-0.0000,1000.0000,1715.0000,1500.0000,1999.0000
235318.3210,2.0000,1998.0000,2000.0000,1786.0000,-38.0000,-80.0000,-3.0000,223.0000,-857.0000,9420.0000,-0.8419,0.0743,0.0847,-0.5277,115.4700,-60.0400,-80.4800,3.5300,-11.2700,2.7400,0.0000,0.0000,-0.0000,1000.0000,1716.0000,1500.0000,1999.0000
235335.0900,2.0000,1998.0000,2000.0000,1786.0000,-133.0000,-37.0000,17.0000,421.0000,-789.0000,10532.0000,-0.8396,0.0802,0.0986,-0.5281,115.5400,-60.2500,-80.3600,3.4400,-11.2900,2.1300,0.0000,0.0000,-0.0000,1000.0000,1716.0000,1500.0000,1999.0000
235351.7050,2.0000,1998.0000,2000.0000,1786.0000,-233.0000,24.0000,31.0000,276.0000,-548.0000,10760.0000,-0.8352,0.1024,0.1136,-0.5282,115.6200,-60.4800,-80.2600,3.2400,-11.5200,1.4000,0.0000,0.0000,-0.0000,1000.0000,1716.0000,1500.0000,1999.0000
235368.6470,2.0000,1998.0000,2000.0000,1786.0000,-323.0000,82.0000,43.0000,242.0000,-507.0000,9333.0000,-0.8282,0.1416,0.1286,-0.5268,115.6900,-60.7200,-80.1700,2.9700,-11.7400,0.6700,0.0000,0.0000,-0.0000,1000.0000,1716.0000,1500.0000,1999.0000
235385.4520,2.0000,1998.0000,2000.0000,1786.0000,-387.0000,145.0000,52.0000,113.0000,-253.0000,6005.0000,-0.8181,0.1947,0.1406,-0.5225,115.6900,-60.7200,-80.1700,2.9700,-11.7400,0.6700,0.0000,0.0000,-0.0000,1000.0000,1716.0000,1500.0000,1999.0000
235402.2770,2.0000,1998.0000,2000.0000,1786.0000,-447.0000,185.0000,60.0000,-224.0000,-74.0000,2227.0000,-0.8033,0.2585,0.1513,-0.5148,115.7500,-60.9500,-80.0900,2.7200,-11.9800,0.2100,0.0000,0.0000,-0.0000,1000.0000,1716.0000,1500.0000,1999.0000
235419.3780,2.0000,1999.0000,1544.0000,1188.0000,-482.0000,208.0000,64.0000,95.0000,352.0000,-425.0000,-0.7825,0.3300,0.1609,-0.5029,115.8000,-61.1600,-80.0000,2.5900,-12.2000,0.1500,0.0000,0.0000,-0.0000,1637.0000,1680.0000,1500.0000,2000.0000
235436.0970,2.0000,2000.0000,1543.0000,1187.0000,-490.0000,211.0000,58.0000,-186.0000,580.0000,-3153.0000,-0.7571,0.4011,0.1691,-0.4872,115.8600,-61.3900,-79.8800,2.6000,-12.5000,0.3800,0.0000,0.0000,-0.0000,1637.0000,1680.0000,1500.0000,2000.0000
235452.7120,2.0000,2000.0000,1543.0000,1187.0000,-472.0000,213.0000,45.0000,-314.0000,1034.0000,-5081.0000,-0.7278,0.4694,0.1768,-0.4677,115.9200,-61.6900,-79.7700,2.6900,-12.8900,0.8000,0.0000,0.0000,-0.0000,1637.0000,1680.0000,1500.0000,2000.0000
235469.6570,2.0000,2000.0000,1543.0000,1187.0000,-401.0000,192.0000,22.0000,36.0000,1139.0000,-6324.0000,-0.6979,0.5307,0.1827,-0.4448,115.9900,-61.9700,-79.6700,2.9000,-13.0800,1.0600,0.0000,0.0000,-0.0000,1637.0000,1680.0000,1500.0000,2000.0000
235486.3140,2.0000,2000.0000,1543.0000,1187.0000,-290.0000,173.0000,-11.0000,234.0000,1303.0000,-7090.0000,-0.6743,0.5768,0.1864,-0.4218,115.9900,-61.9700,-79.6700,2.9000,-13.0800,1.0600,0.0000,0.0000,-0.0000,1637.0000,1680.0000,1500.0000,2000.0000
235503.3520,2.0000,1999.0000,1503.0000,1273.0000,-141.0000,161.0000,-46.0000,1018.0000,822.0000,-7364.0000,-0.6613,0.6071,0.1864,-0.3993,116.0500,-62.2400,-79.5900,3.2000,-13.1400,1.2700,0.0000,0.0000,-0.0000,1591.0000,1552.0000,1500.0000,1999.0000
235520.5270,2.0000,1998.0000,1461.0000,1361.0000,-2.0000,160.0000,-69.0000,563.0000,812.0000,-7062.0000,-0.6624,0.6216,0.1806,-0.3772,116.1200,-62.4900,-79.5400,3.5600,-13.1400,1.3800,0.0000,0.0000,-0.0000,1591.0000,1552.0000,1500.0000,1999.0000
235537.3600,2.0000,1998.0000,1461.0000,1361.0000,55.0000,136.0000,-88.0000,338.0000,896.0000,-8587.0000,-0.6729,0.6246,0.1722,-0.3570,116.1900,-62.7600,-79.5200,3.8200,-13.1700,1.4500,0.0000,0.0000,-0.0000,1591.0000,1552.0000,1500.0000,1999.0000
235554.3340,2.0000,1998.0000,1461.0000,1361.0000,74.0000,82.0000,-99.0000,573.0000,526.0000,-9794.0000,-0.6862,0.6212,0.1671,-0.3396,116.2700,-63.0800,-79.5200,4.0400,-13.1700,1.5300,0.0000,0.0000,-0.0000,1591.0000,1552.0000,1500.0000,1999.0000
235571.2160,2.0000,1998.0000,1461.0000,1361.0000,79.0000,20.0000,-98.0000,341.0000,-26.0000,-9347.0000,-0.6990,0.6128,0.1683,-0.3279,116.3400,-63.3800,-79.5400,4.2900,-13.0500,1.5700,0.0000,0.0000,-0.0000,1591.0000,1552.0000,1500.0000,1999.0000
235588.0990,2.0000,1998.0000,1461.0000,1361.0000,85.0000,-21.0000,-91.0000,478.0000,-391.0000,-7322.0000,-0.7104,0.6017,0.1738,-0.3212,116.4200,-63.6500,-79.5800,4.4200,-13.0200,1.6200,0.0000,0.0000,-0.0000,1591.0000,1552.0000,1500.0000,1999.0000
235604.9450,2.0000,1998.0000,1461.0000,1361.0000,88.0000,-41.0000,-77.0000,498.0000,-617.0000,-4831.0000,-0.7207,0.5884,0.1815,-0.3185,116.4200,-63.6500,-79.5800,4.4200,-13.0200,1.6200,0.0000,0.0000,-0.0000,1591.0000,1552.0000,1500.0000,1999.0000
235621.8190,2.0000,1998.0000,1490.0000,1364.0000,104.0000,-43.0000,-60.0000,588.0000,-961.0000,-2897.0000,-0.7307,0.5740,0.1881,-0.3182,116.4900,-63.9100,-79.6400,4.3900,-13.1600,1.6700,0.0000,0.0000,-0.0000,1574.0000,1567.0000,1500.0000,1999.0000
235638.6720,2.0000,1998.0000,1493.0000,1363.0000,119.0000,-24.0000,-35.0000,641.0000,-1197.0000,-1422.0000,-0.7408,0.5590,0.1912,-0.3197,116.5600,-64.2000,-79.6900,4.3000,-13.4400,1.7700,0.0000,0.0000,-0.0000,1574.0000,1567.0000,1500.0000,1999.0000
235655.6440,2.0000,1998.0000,1493.0000,1363.0000,136.0000,-9.0000,-7.0000,722.0000,-1472.0000,-26.0000,-0.7514,0.5435,0.1891,-0.3229,116.6400,-64.5400,-79.7400,4.2500,-13.8000,1.9400,0.0000,0.0000,-0.0000,1574.0000,1567.0000,1500.0000,1999.0000
235672.5160,2.0000,1998.0000,1493.0000,1363.0000,149.0000,10.0000,22.0000,321.0000,-1681.0000,871.0000,-0.7621,0.5276,0.1820,-0.3284,116.7100,-64.8600,-79.7700,4.1100,-14.1600,2.1800,0.0000,0.0000,-0.0000,1574.0000,1567.0000,1500.0000,1999.0000
235689.4710,2.0000,1998.0000,1493.0000,1363.0000,152.0000,25.0000,51.0000,916.0000,-1517.0000,918.0000,-0.7719,0.5123,0.1702,-0.3357,116.7700,-65.1700,-79.7700,3.9400,-14.5000,2.4400,0.0000,0.0000,-0.0000,1574.0000,1567.0000,1500.0000,1999.0000
235706.5830,2.0000,1998.0000,1493.0000,1363.0000,150.0000,44.0000,75.0000,723.0000,-1259.0000,462.0000,-0.7808,0.4977,0.1542,-0.3448,116.7700,-65.1700,-79.7700,3.9400,-14.5000,2.4400,0.0000,0.0000,-0.0000,1574.0000,1567.0000,1500.0000,1999.0000
235723.3760,2.0000,1998.0000,1503.0000,1351.0000,144.0000,58.0000,100.0000,297.0000,-917.0000,-30.0000,-0.7877,0.4852,0.1347,-0.3549,116.8200,-65.4600,-79.7500,3.8400,-14.7900,2.7200,0.0000,0.0000,-0.0000,1576.0000,1579.0000,1500.0000,1999.0000
235740.2020,2.0000,1998.0000,1503.0000,1349.0000,132.0000,81.0000,119.0000,845.0000,-623.0000,-803.0000,-0.7926,0.4746,0.1121,-0.3659,116.8900,-65.7900,-79.7100,3.8700,-14.9400,3.0500,0.0000,0.0000,-0.0000,1576.0000,1579.0000,1500.0000,1999.0000
235756.9920,2.0000,1998.0000,1503.0000,1349.0000,124.0000,83.0000,129.0000,673.0000,-560.0000,-1756.0000,-0.7957,0.4656,0.0877,-0.3773,116.9700,-66.1400,-79.6500,4.1300,-14.9700,3.4200,0.0000,0.0000,-0.0000,1576.0000,1579.0000,1500.0000,1999.0000
235773.6840,2.0000,1998.0000,1503.0000,1349.0000,114.0000,92.0000,137.0000,638.0000,-308.0000,-2614.0000,-0.7968,0.4583,0.0625,-0.3888,117.0500,-66.4800,-79.5700,4.4100,-14.9200,3.8300,0.0000,0.0000,-0.0000,1576.0000,1579.0000,1500.0000,1999.0000
235790.6280,2.0000,1998.0000,1503.0000,1349.0000,107.0000,108.0000,136.0000,211.0000,290.0000,-4287.0000,-0.7967,0.4521,0.0354,-0.3997,117.1300,-66.7800,-79.4900,4.6400,-14.7500,4.2500,0.0000,0.0000,-0.0000,1576.0000,1579.0000,1500.0000,1999.0000
235807.4440,2.0000,1998.0000,1503.0000,1349.0000,111.0000,107.0000,131.0000,236.0000,543.0000,-5595.0000,-0.7958,0.4462,0.0082,-0.4093,117.1300,-66.7800,-79.4900,4.6400,-14.7500,4.2500,0.0000,0.0000,-0.0000,1576.0000,1579.0000,1500.0000,1999.0000
235824.5570,2.0000,1998.0000,1368.0000,1410.0000,114.0000,78.0000,114.0000,170.0000,721.0000,-6609.0000,-0.7954,0.4385,-0.0182,-0.4179,117.2100,-67.0700,-79.3900,4.8400,-14.4700,4.7100,0.0000,0.0000,-0.0000,1614.0000,1477.0000,1500.0000,1999.0000
235841.3950,2.0000,1998.0000,1366.0000,1410.0000,116.0000,66.0000,88.0000,394.0000,1065.0000,-6663.0000,-0.7959,0.4292,-0.0399,-0.4252,117.3000,-67.3700,-79.3000,5.0900,-14.1200,5.1500,0.0000,0.0000,-0.0000,1614.0000,1477.0000,1500.0000,1999.0000
235858.1550,2.0000,1998.0000,1366.0000,1410.0000,121.0000,35.0000,63.0000,110.0000,1031.0000,-6612.0000,-0.7980,0.4179,-0.0574,-0.4305,117.4200,-67.6900,-79.2200,5.3600,-13.7800,5.5900,0.0000,0.0000,-0.0000,1614.0000,1477.0000,1500.0000,1999.0000
235875.0040,2.0000,1998.0000,1366.0000,1410.0000,135.0000,-1.0000,40.0000,232.0000,1019.0000,-5609.0000,-0.8021,0.4034,-0.0701,-0.4348,117.5300,-67.9900,-79.1400,5.5400,-13.4600,6.0400,0.0000,0.0000,-0.0000,1614.0000,1477.0000,1500.0000,1999.0000
235891.8840,2.0000,1998.0000,1366.0000,1410.0000,135.0000,-16.0000,16.0000,221.0000,1086.0000,-4330.0000,-0.8081,0.3862,-0.0789,-0.4377,117.6400,-68.2600,-79.0600,5.6400,-13.2800,6.5000,0.0000,0.0000,-0.0000,1614.0000,1477.0000,1500.0000,1999.0000
235908.8150,2.0000,1998.0000,1366.0000,1410.0000,141.0000,-33.0000,-5.0000,277.0000,947.0000,-3037.0000,-0.8155,0.3683,-0.0853,-0.4382,117.6400,-68.2600,-79.0600,5.6400,-13.2800,6.5000,0.0000,0.0000,-0.0000,1614.0000,1477.0000,1500.0000,1999.0000
235925.4360,2.0000,1998.0000,1070.0000,1460.0000,142.0000,-29.0000,-20.0000,-227.0000,813.0000,-2195.0000,-0.8239,0.3496,-0.0896,-0.4369,117.7400,-68.5000,-78.9800,5.6800,-13.1900,6.9500,0.0000,0.0000,-0.0000,1866.0000,1122.0000,1500.0000,1999.0000
235942.2450,2.0000,1998.0000,1000.0000,1513.0000,134.0000,-28.0000,-34.0000,-10.0000,515.0000,-1140.0000,-0.8327,0.3315,-0.0934,-0.4335,117.8600,-68.7800,-78.8800,5.7700,-13.1700,7.3600,0.0000,0.0000,-0.0000,1866.0000,1122.0000,1500.0000,1999.0000
235958.9350,2.0000,1998.0000,1000.0000,1513.0000,130.0000,-13.0000,-41.0000,346.0000,574.0000,76.0000,-0.8415,0.3147,-0.0975,-0.4282,118.0000,-69.0900,-78.7500,5.9300,-13.2000,7.7800,0.0000,0.0000,-0.0000,1866.0000,1122.0000,1500.0000,1999.0000
235975.8980,2.0000,1998.0000,1000.0000,1513.0000,134.0000,-23.0000,-52.0000,324.0000,268.0000,-163.0000,-0.8506,0.2976,-0.1011,-0.4215,118.1300,-69.3700,-78.6100,6.0800,-13.2900,8.1300,0.0000,0.0000,-0.0000,1866.0000,1122.0000,1500.0000,1999.0000
235992.5560,2.0000,1998.0000,1000.0000,1513.0000,146.0000,-55.0000,-63.0000,15.0000,62.0000,-479.0000,-0.8605,0.2788,-0.1023,-0.4140,118.1300,-69.3700,-78.6100,6.0800,-13.2900,8.1300,0.0000,0.0000,-0.0000,1866.0000,1122.0000,1500.0000,1999.0000
236009.1540,2.0000,1998.0000,1000.0000,1513.0000,165.0000,-84.0000,-77.0000,-511.0000,95.0000,-191.0000,-0.8716,0.2563,-0.0998,-0.4059,118.2600,-69.6400,-78.4500,6.2200,-13.3200,8.5000,0.0000,0.0000,-0.0000,1866.0000,1122.0000,1500.0000,1999.0000
236025.8810,2.0000,1998.0000,1668.0000,2000.0000,186.0000,-117.0000,-87.0000,-421.0000,57.0000,1758.0000,-0.8840,0.2290,-0.0941,-0.3966,118.3800,-69.9000,-78.2800,6.3100,-13.2900,8.8800,0.0000,0.0000,-0.0000,1001.0000,1170.0000,1500.0000,1999.0000
236042.3720,2.0000,1998.0000,1669.0000,2000.0000,200.0000,-142.0000,-92.0000,-270.0000,-366.0000,4160.0000,-0.8968,0.1977,-0.0857,-0.3865,118.5200,-70.1700,-78.0800,6.4400,-13.3300,9.0900,0.0000,0.0000,-0.0000,1001.0000,1170.0000,1500.0000,1999.0000
236059.2360,2.0000,1998.0000,1669.0000,2000.0000,171.0000,-158.0000,-79.0000,91.0000,-853.0000,7348.0000,-0.9085,0.1649,-0.0739,-0.3768,118.6800,-70.4800,-77.8600,6.6800,-13.4600,9.0600,0.0000,0.0000,-0.0000,1001.0000,1170.0000,1500.0000,1999.0000
236076.1680,2.0000,1998.0000,1669.0000,2000.0000,103.0000,-175.0000,-54.0000,263.0000,-1322.0000,9704.0000,-0.9170,0.1376,-0.0571,-0.3700,118.8300,-70.7700,-77.6400,6.9300,-13.6100,8.7200,0.0000,0.0000,-0.0000,1001.0000,1170.0000,1500.0000,1999.0000
236092.7950,2.0000,1998.0000,1669.0000,2000.0000,11.0000,-170.0000,-16.0000,560.0000,-1743.0000,11596.0000,-0.9212,0.1212,-0.0363,-0.3680,118.8300,-70.7700,-77.6400,6.9300,-13.6100,8.7200,0.0000,0.0000,-0.0000,1001.0000,1170.0000,1500.0000,1999.0000
236109.6000,2.0000,1998.0000,1669.0000,2000.0000,-82.0000,-155.0000,25.0000,863.0000,-1889.0000,13474.0000,-0.9208,0.1174,-0.0121,-0.3718,118.9800,-71.0400,-77.4200,7.1800,-13.7200,8.1200,0.0000,0.0000,-0.0000,1001.0000,1170.0000,1500.0000,1999.0000
236126.3320,2.0000,1997.0000,1000.0000,1769.0000,-155.0000,-120.0000,56.0000,928.0000,-1521.0000,14488.0000,-0.9163,0.1260,0.0122,-0.3799,119.1300,-71.3000,-77.2000,7.3800,-13.8100,7.3000,0.0000,0.0000,-0.0000,1684.0000,1049.0000,1500.0000,1998.0000
236143.2690,2.0000,1997.0000,1000.0000,1769.0000,-210.0000,-85.0000,78.0000,834.0000,-1244.0000,14275.0000,-0.9084,0.1451,0.0353,-0.3904,119.2900,-71.5800,-76.9900,7.4000,-13.8900,6.2700,0.0000,0.0000,-0.0000,1684.0000,1049.0000,1500.0000,1998.0000
236160.0530,2.0000,1997.0000,1000.0000,1769.0000,-225.0000,-62.0000,94.0000,670.0000,-922.0000,12368.0000,-0.8978,0.1708,0.0555,-0.4021,119.4500,-71.8700,-76.8100,7.2700,-13.9500,5.2800,0.0000,0.0000,-0.0000,1684.0000,1049.0000,1500.0000,1998.0000
236176.8170,2.0000,1997.0000,1000.0000,1769.0000,-179.0000,-74.0000,97.0000,573.0000,-794.0000,9825.0000,-0.8859,0.1949,0.0735,-0.4144,119.6100,-72.1500,-76.6500,7.0900,-14.0100,4.5100,0.0000,0.0000,-0.0000,1684.0000,1049.0000,1500.0000,1998.0000
