t_ms,msp,motor,servo0,servo1,gyro_p,gyro_q,gyro_r,acc_x,acc_y,acc_z,qw,qx,qy,qz,pos_n,pos_e,pos_d,vel_n,vel_e,vel_d,tgtpos_n,tgtpos_e,tgtpos_d,rcData0,rcData1,rcData2,rcData3
167288.3510,3.0000,1693.0000,1500.0000,1500.0000,-25.0000,10.0000,47.0000,176.0000,-157.0000,291.0000,0.1845,-0.2222,-0.2006,0.9361,165.9400,-73.0500,-112.2400,-22.0800,-3.5500,4.6200,0.0000,0.0000,-0.0000,1500.0000,1500.0000,1500.0000,1710.0000
167305.3980,3.0000,1693.0000,1500.0000,1500.0000,-32.0000,13.0000,50.0000,253.0000,1.0000,491.0000,0.1769,-0.2259,-0.2026,0.9363,165.4900,-73.1100,-112.1900,-22.1300,-3.4900,4.7500,0.0000,0.0000,-0.0000,1500.0000,1498.0000,1500.0000,1710.0000
167322.0490,3.0000,1691.0000,1500.0000,1500.0000,-41.0000,12.0000,46.0000,258.0000,206.0000,609.0000,0.1691,-0.2300,-0.2060,0.9360,165.4900,-73.1100,-112.1900,-22.1300,-3.4900,4.7500,0.0000,0.0000,-0.0000,1500.0000,1500.0000,1500.0000,1708.0000
167338.6530,3.0000,1691.0000,1500.0000,1500.0000,-44.0000,12.0000,42.0000,214.0000,113.0000,677.0000,0.1618,-0.2338,-0.2101,0.9354,165.0200,-73.1600,-112.1300,-22.2100,-3.4200,4.8900,0.0000,0.0000,-0.0000,1498.0000,1498.0000,1500.0000,1708.0000
167355.2020,3.0000,1693.0000,1500.0000,1500.0000,-52.0000,13.0000,34.0000,189.0000,189.0000,765.0000,0.1553,-0.2378,-0.2154,0.9343,164.5500,-73.2200,-112.0700,-22.2900,-3.3400,5.0200,0.0000,0.0000,-0.0000,1500.0000,1500.0000,1500.0000,1710.0000
167371.7330,3.0000,1693.0000,1500.0000,1500.0000,-54.0000,14.0000,28.0000,134.0000,144.0000,963.0000,0.1496,-0.2417,-0.2214,0.9329,164.1000,-73.2700,-112.0100,-22.3500,-3.2600,5.1500,0.0000,0.0000,-0.0000,1500.0000,1500.0000,1500.0000,1710.0000
167388.3900,3.0000,1693.0000,1500.0000,1500.0000,-60.0000,13.0000,20.0000,165.0000,122.0000,1152.0000,0.1446,-0.2455,-0.2282,0.9310,163.6500,-73.3200,-111.9400,-22.4100,-3.1700,5.2600,0.0000,0.0000,-0.0000,1500.0000,1498.0000,1500.0000,1710.0000
167405.1160,3.0000,1693.0000,1500.0000,1500.0000,-58.0000,17.0000,14.0000,180.0000,-87.0000,1372.0000,0.1407,-0.2493,-0.2353,0.9288,163.6500,-73.3200,-111.9400,-22.4100,-3.1700,5.2600,0.0000,0.0000,-0.0000,1500.0000,1500.0000,1500.0000,1710.0000
167421.8540,3.0000,1693.0000,1500.0000,1500.0000,-50.0000,18.0000,5.0000,232.0000,50.0000,1416.0000,0.1379,-0.2530,-0.2418,0.9266,163.2000,-73.3600,-111.8700,-22.5000,-3.1000,5.3400,0.0000,0.0000,-0.0000,1500.0000,1500.0000,1500.0000,1710.0000
167438.3440,3.0000,1693.0000,1500.0000,1500.0000,-44.0000,19.0000,-2.0000,134.0000,-33.0000,1441.0000,0.1364,-0.2562,-0.2478,0.9243,162.7200,-73.4100,-111.8000,-22.6100,-3.0300,5.4100,0.0000,0.0000,-0.0000,1500.0000,1498.0000,1500.0000,1710.0000
167454.9740,3.0000,1693.0000,1500.0000,1500.0000,-40.0000,20.0000,-8.0000,52.0000,28.0000,1408.0000,0.1360,-0.2594,-0.2533,0.9220,162.2500,-73.4600,-111.7300,-22.7000,-2.9500,5.4900,0.0000,0.0000,-0.0000,1500.0000,1500.0000,1500.0000,1710.0000
167471.6790,3.0000,1693.0000,1500.0000,1500.0000,-38.0000,22.0000,-13.0000,26.0000,-20.0000,1055.0000,0.1365,-0.2625,-0.2582,0.9197,161.7800,-73.5100,-111.6600,-22.7700,-2.8800,5.5700,0.0000,0.0000,-0.0000,1500.0000,1500.0000,1500.0000,1710.0000
167488.4590,3.0000,1693.0000,1500.0000,1500.0000,-38.0000,24.0000,-16.0000,32.0000,-37.0000,614.0000,0.1378,-0.2653,-0.2632,0.9172,161.3300,-73.5500,-111.5900,-22.8000,-2.8200,5.6800,0.0000,0.0000,-0.0000,1500.0000,1500.0000,1500.0000,1710.0000
167505.1870,3.0000,1693.0000,1500.0000,1500.0000,-29.0000,25.0000,-18.0000,155.0000,-89.0000,292.0000,0.1394,-0.2682,-0.2674,0.9149,161.3300,-73.5500,-111.5900,-22.8000,-2.8200,5.6800,0.0000,0.0000,-0.0000,1500.0000,1498.0000,1500.0000,1710.0000
167521.6700,3.0000,1693.0000,1500.0000,1500.0000,-30.0000,26.0000,-19.0000,225.0000,-151.0000,171.0000,0.1413,-0.2711,-0.2708,0.9128,160.8500,-73.5900,-111.5100,-22.8400,-2.7900,5.8200,0.0000,0.0000,-0.0000,1500.0000,1500.0000,1500.0000,1710.0000
167538.3410,3.0000,1693.0000,1500.0000,1500.0000,-30.0000,28.0000,-20.0000,190.0000,-151.0000,125.0000,0.1433,-0.2739,-0.2741,0.9107,160.3700,-73.6400,-111.4300,-22.8800,-2.7700,5.9700,0.0000,0.0000,-0.0000,1500.0000,1500.0000,1500.0000,1710.0000
167554.9430,3.0000,1693.0000,1500.0000,1500.0000,-21.0000,27.0000,-18.0000,132.0000,-140.0000,67.0000,0.1455,-0.2768,-0.2769,0.9086,159.9000,-73.6800,-111.3500,-22.9100,-2.7500,6.1300,0.0000,0.0000,-0.0000,1500.0000,1498.0000,1500.0000,1710.0000
167571.5350,3.0000,1693.0000,1500.0000,1500.0000,-19.0000,27.0000,-15.0000,52.0000,-268.0000,-25.0000,0.1475,-0.2796,-0.2791,0.9067,159.4300,-73.7200,-111.2700,-22.9100,-2.7300,6.2800,0.0000,0.0000,-0.0000,1500.0000,1498.0000,1500.0000,1710.0000
167588.0920,3.0000,1690.0000,1500.0000,1500.0000,-20.0000,26.0000,-12.0000,-8.0000,-309.0000,-16.0000,0.1492,-0.2823,-0.2803,0.9052,158.9800,-73.7600,-111.1800,-22.8900,-2.7300,6.4400,0.0000,0.0000,-0.0000,1500.0000,1500.0000,1500.0000,1707.0000
167604.7220,3.0000,1693.0000,1500.0000,1500.0000,-20.0000,25.0000,-6.0000,-25.0000,-396.0000,177.0000,0.1501,-0.2853,-0.2820,0.9037,158.9800,-73.7600,-111.1800,-22.8900,-2.7300,6.4400,0.0000,0.0000,-0.0000,1498.0000,1500.0000,1500.0000,1710.0000
167621.2170,3.0000,1693.0000,1500.0000,1500.0000,-3.0000,24.0000,2.0000,-18.0000,-487.0000,206.0000,0.1504,-0.2883,-0.2827,0.9024,158.5400,-73.8000,-111.0900,-22.8700,-2.7200,6.5700,0.0000,0.0000,-0.0000,1500.0000,1498.0000,1500.0000,1710.0000
167637.8930,3.0000,1693.0000,1500.0000,1500.0000,-2.0000,22.0000,8.0000,122.0000,-521.0000,8.0000,0.1501,-0.2910,-0.2816,0.9019,158.1000,-73.8400,-111.0000,-22.8500,-2.7100,6.6900,0.0000,0.0000,-0.0000,1500.0000,1500.0000,1500.0000,1710.0000
167654.4500,3.0000,1693.0000,1500.0000,1500.0000,3.0000,20.0000,14.0000,166.0000,-464.0000,-40.0000,0.1492,-0.2934,-0.2799,0.9018,157.6800,-73.8700,-110.9100,-22.8100,-2.7200,6.8300,0.0000,0.0000,-0.0000,1500.0000,1500.0000,1500.0000,1710.0000
167671.0710,3.0000,1689.0000,1500.0000,1500.0000,2.0000,18.0000,21.0000,146.0000,-522.0000,187.0000,0.1476,-0.2957,-0.2780,0.9019,157.2600,-73.9100,-110.8200,-22.7700,-2.7300,6.9800,0.0000,0.0000,-0.0000,1500.0000,1500.0000,1500.0000,1706.0000
167687.7130,3.0000,1691.0000,1500.0000,1500.0000,2.0000,18.0000,27.0000,80.0000,-412.0000,384.0000,0.1450,-0.2983,-0.2764,0.9020,157.2600,-73.9100,-110.8200,-22.7700,-2.7300,6.9800,0.0000,0.0000,-0.0000,1500.0000,1498.0000,1500.0000,1710.0000
167704.2810,3.0000,1693.0000,1500.0000,1500.0000,2.0000,16.0000,30.0000,22.0000,-319.0000,371.0000,0.1417,-0.3012,-0.2748,0.9021,156.8600,-73.9500,-110.7200,-22.7400,-2.7300,7.0900,0.0000,0.0000,-0.0000,1500.0000,1498.0000,1500.0000,1710.0000
167721.2910,3.0000,1693.0000,1500.0000,1500.0000,-6.0000,17.0000,30.0000,52.0000,-219.0000,137.0000,0.1379,-0.3043,-0.2738,0.9019,156.4600,-73.9800,-110.6300,-22.7000,-2.7100,7.2100,0.0000,0.0000,-0.0000,1500.0000,1498.0000,1500.0000,1710.0000
167737.8450,3.0000,1693.0000,1500.0000,1500.0000,-10.0000,16.0000,31.0000,85.0000,-190.0000,-170.0000,0.1339,-0.3075,-0.2737,0.9015,156.0700,-74.0200,-110.5300,-22.6400,-2.6900,7.3500,0.0000,0.0000,-0.0000,1500.0000,1500.0000,1500.0000,1710.0000
167754.3730,3.0000,1693.0000,1500.0000,1500.0000,-8.0000,16.0000,31.0000,99.0000,30.0000,-247.0000,0.1300,-0.3107,-0.2737,0.9009,155.7000,-74.0500,-110.4300,-22.5600,-2.6700,7.5200,0.0000,0.0000,-0.0000,1500.0000,1500.0000,1500.0000,1710.0000
167770.9340,3.0000,1691.0000,1500.0000,1500.0000,-10.0000,15.0000,29.0000,59.0000,-67.0000,-64.0000,0.1260,-0.3137,-0.2737,0.9005,155.3400,-74.0800,-110.3300,-22.4700,-2.6500,7.6900,0.0000,0.0000,-0.0000,1500.0000,1500.0000,1500.0000,1708.0000
167787.6820,3.0000,1693.0000,1500.0000,1500.0000,-16.0000,14.0000,27.0000,36.0000,-22.0000,157.0000,0.1220,-0.3169,-0.2743,0.8997,155.3400,-74.0800,-110.3300,-22.4700,-2.6500,7.6900,0.0000,0.0000,-0.0000,1500.0000,1498.0000,1500.0000,1710.0000
167804.2310,3.0000,1693.0000,1500.0000,1500.0000,-28.0000,14.0000,24.0000,75.0000,-9.0000,358.0000,0.1178,-0.3202,-0.2755,0.8987,154.9800,-74.1100,-110.2200,-22.4000,-2.6200,7.8500,0.0000,0.0000,-0.0000,1500.0000,1500.0000,1500.0000,1710.0000
167821.2730,3.0000,1693.0000,1500.0000,1500.0000,-27.0000,16.0000,22.0000,95.0000,79.0000,422.0000,0.1137,-0.3235,-0.2779,0.8973,154.6400,-74.1400,-110.1100,-22.3300,-2.5700,7.9900,0.0000,0.0000,-0.0000,1500.0000,1500.0000,1500.0000,1710.0000
167837.7370,3.0000,1693.0000,1500.0000,1500.0000,-33.0000,15.0000,18.0000,46.0000,-2.0000,153.0000,0.1103,-0.3263,-0.2810,0.8958,154.3000,-74.1700,-110.0000,-22.2700,-2.5200,8.1300,0.0000,0.0000,-0.0000,1500.0000,1500.0000,1500.0000,1710.0000
167854.1590,3.0000,1691.0000,1500.0000,1500.0000,-33.0000,17.0000,15.0000,137.0000,-49.0000,-34.0000,0.1073,-0.3290,-0.2851,0.8939,153.9700,-74.1900,-109.8900,-22.1900,-2.4900,8.2900,0.0000,0.0000,-0.0000,1500.0000,1500.0000,1500.0000,1708.0000
167870.7710,3.0000,1692.0000,1500.0000,1500.0000,-29.0000,15.0000,13.0000,87.0000,-176.0000,29.0000,0.1048,-0.3313,-0.2889,0.8921,153.9700,-74.1900,-109.8900,-22.1900,-2.4900,8.2900,0.0000,0.0000,-0.0000,1500.0000,1500.0000,1500.0000,1710.0000
167887.3250,3.0000,1693.0000,1500.0000,1500.0000,-27.0000,14.0000,12.0000,65.0000,-187.0000,330.0000,0.1027,-0.3335,-0.2918,0.8906,153.6500,-74.2200,-109.7700,-22.1000,-2.4800,8.4500,0.0000,0.0000,-0.0000,1500.0000,1498.0000,1500.0000,1710.0000
167903.8890,3.0000,1693.0000,1500.0000,1500.0000,-22.0000,16.0000,15.0000,12.0000,-365.0000,464.0000,0.1005,-0.3358,-0.2943,0.8891,153.3400,-74.2400,-109.6600,-22.0100,-2.4500,8.5900,0.0000,0.0000,-0.0000,1500.0000,1500.0000,1500.0000,1710.0000
167920.7530,3.0000,1693.0000,1500.0000,1500.0000,-22.0000,15.0000,19.0000,-9.0000,-361.0000,453.0000,0.0975,-0.3392,-0.2959,0.8876,153.0400,-74.2700,-109.5300,-21.9400,-2.4300,8.7000,0.0000,0.0000,-0.0000,1500.0000,1498.0000,1500.0000,1710.0000
167937.4270,3.0000,1693.0000,1500.0000,1500.0000,-19.0000,15.0000,24.0000,37.0000,-281.0000,236.0000,0.0941,-0.3422,-0.2972,0.8864,152.7400,-74.2900,-109.4100,-21.8600,-2.4100,8.8200,0.0000,0.0000,-0.0000,1500.0000,1498.0000,1500.0000,1710.0000
167953.8780,3.0000,1693.0000,1500.0000,1500.0000,-25.0000,16.0000,29.0000,83.0000,-144.0000,-15.0000,0.0902,-0.3453,-0.2989,0.8851,152.4600,-74.3100,-109.2900,-21.7600,-2.3900,8.9500,0.0000,0.0000,-0.0000,1500.0000,1500.0000,1500.0000,1710.0000
167970.4930,3.0000,1693.0000,1500.0000,1500.0000,-34.0000,14.0000,32.0000,48.0000,-179.0000,230.0000,0.0853,-0.3485,-0.3017,0.8833,152.4600,-74.3100,-109.2900,-21.7600,-2.3900,8.9500,0.0000,0.0000,-0.0000,1500.0000,1500.0000,1500.0000,1710.0000
167987.3550,3.0000,1691.0000,1500.0000,1500.0000,-30.0000,17.0000,33.0000,-50.0000,-309.0000,474.0000,0.0798,-0.3525,-0.3039,0.8815,152.1800,-74.3300,-109.1700,-21.6500,-2.3700,9.1000,0.0000,0.0000,-0.0000,1500.0000,1500.0000,1500.0000,1708.0000
168004.1470,3.0000,1693.0000,1500.0000,1500.0000,-19.0000,15.0000,35.0000,-84.0000,-243.0000,291.0000,0.0745,-0.3565,-0.3051,0.8799,151.9000,-74.3500,-109.0400,-21.5600,-2.3500,9.2100,0.0000,0.0000,-0.0000,1500.0000,1500.0000,1500.0000,1710.0000
168020.8450,3.0000,1693.0000,1500.0000,1500.0000,-25.0000,16.0000,33.0000,-49.0000,-108.0000,266.0000,0.0694,-0.3602,-0.3063,0.8784,151.4800,-74.3900,-108.9000,-21.6300,-2.3400,9.3400,0.0000,0.0000,-0.0000,1500.0000,1500.0000,1500.0000,1710.0000
168037.4100,3.0000,1693.0000,1500.0000,1500.0000,-22.0000,16.0000,32.0000,-110.0000,-43.0000,174.0000,0.0645,-0.3637,-0.3073,0.8770,150.9700,-74.4300,-108.7600,-21.7700,-2.3300,9.4900,0.0000,0.0000,-0.0000,1500.0000,1498.0000,1500.0000,1710.0000
168054.0190,3.0000,1693.0000,1500.0000,1500.0000,-20.0000,15.0000,33.0000,-161.0000,-104.0000,578.0000,0.0596,-0.3672,-0.3084,0.8755,150.4700,-74.4800,-108.6100,-21.9000,-2.3100,9.6300,0.0000,0.0000,-0.0000,1500.0000,1498.0000,1500.0000,1710.0000
168070.6200,3.0000,1693.0000,1500.0000,1500.0000,-19.0000,18.0000,32.0000,-152.0000,-24.0000,915.0000,0.0550,-0.3707,-0.3091,0.8741,150.4700,-74.4800,-108.6100,-21.9000,-2.3100,9.6300,0.0000,0.0000,-0.0000,1500.0000,1498.0000,1500.0000,1710.0000
168087.2890,3.0000,1693.0000,1500.0000,1500.0000,-10.0000,19.0000,29.0000,-129.0000,63.0000,874.0000,0.0510,-0.3743,-0.3089,0.8729,149.9800,-74.5200,-108.4700,-22.0400,-2.2700,9.7500,0.0000,0.0000,-0.0000,1500.0000,1500.0000,1500.0000,1710.0000
168103.8100,3.0000,1693.0000,1500.0000,1500.0000,-11.0000,20.0000,25.0000,-177.0000,186.0000,661.0000,0.0476,-0.3778,-0.3084,0.8717,149.5000,-74.5600,-108.3200,-22.1700,-2.2100,9.8700,0.0000,0.0000,-0.0000,1500.0000,1500.0000,1500.0000,1710.0000
168120.9090,2.0000,1998.0000,1495.0000,1000.0000,-13.0000,22.0000,24.0000,-156.0000,256.0000,512.0000,0.0444,-0.3812,-0.3083,0.8704,148.9900,-74.6000,-108.1700,-22.3000,-2.1700,10.0100,0.0000,0.0000,-0.0000,1985.0000,1980.0000,1500.0000,1999.0000
168137.9640,2.0000,1998.0000,1495.0000,1000.0000,-16.0000,22.0000,21.0000,-254.0000,97.0000,450.0000,0.0414,-0.3851,-0.3083,0.8688,148.4700,-74.6400,-108.0100,-22.4200,-2.1200,10.1500,0.0000,0.0000,-0.0000,1985.0000,1980.0000,1500.0000,1999.0000
168154.6610,2.0000,1998.0000,1495.0000,1000.0000,-5.0000,29.0000,16.0000,227.0000,-63.0000,616.0000,0.0394,-0.3888,-0.3085,0.8672,148.4700,-74.6400,-108.0100,-22.4200,-2.1200,10.1500,0.0000,0.0000,-0.0000,1985.0000,1980.0000,1500.0000,1999.0000
168171.2920,2.0000,1998.0000,1495.0000,1000.0000,41.0000,64.0000,13.0000,534.0000,-139.0000,891.0000,0.0405,-0.3945,-0.3055,0.8657,147.9600,-74.6800,-107.8500,-22.5400,-2.1000,10.3000,0.0000,0.0000,-0.0000,1985.0000,1980.0000,1500.0000,1999.0000
168187.9950,2.0000,1998.0000,1495.0000,1000.0000,130.0000,114.0000,13.0000,415.0000,-210.0000,938.0000,0.0475,-0.4052,-0.2938,0.8645,147.4500,-74.7200,-107.6900,-22.7000,-2.0900,10.4500,0.0000,0.0000,-0.0000,1985.0000,1980.0000,1500.0000,1999.0000
168204.9910,2.0000,1983.0000,1156.0000,1000.0000,233.0000,188.0000,16.0000,57.0000,-254.0000,-474.0000,0.0627,-0.4235,-0.2684,0.8630,146.9400,-74.7600,-107.5400,-22.8600,-2.0900,10.5900,0.0000,0.0000,-0.0000,1999.0000,1656.0000,1500.0000,1985.0000
168221.8730,2.0000,1983.0000,1156.0000,1000.0000,303.0000,240.0000,16.0000,-42.0000,140.0000,-4064.0000,0.0856,-0.4483,-0.2306,0.8593,146.3900,-74.8000,-107.4000,-22.9000,-2.1400,10.7600,0.0000,0.0000,-0.0000,1999.0000,1656.0000,1500.0000,1985.0000
168238.4680,2.0000,1983.0000,1156.0000,1000.0000,345.0000,232.0000,14.0000,274.0000,496.0000,-9197.0000,0.1121,-0.4740,-0.1863,0.8533,145.8000,-74.8400,-107.2900,-22.6000,-2.2700,11.0300,0.0000,0.0000,-0.0000,1999.0000,1656.0000,1500.0000,1985.0000
168255.2570,2.0000,1983.0000,1156.0000,1000.0000,398.0000,162.0000,9.0000,230.0000,321.0000,-12767.0000,0.1407,-0.4923,-0.1364,0.8481,145.8000,-74.8400,-107.2900,-22.6000,-2.2700,11.0300,0.0000,0.0000,-0.0000,1999.0000,1656.0000,1500.0000,1985.0000
168271.8820,2.0000,1983.0000,1156.0000,1000.0000,475.0000,78.0000,2.0000,46.0000,176.0000,-12770.0000,0.1725,-0.4968,-0.0798,0.8468,145.2200,-74.8900,-107.2500,-21.9400,-2.3700,11.2200,0.0000,0.0000,-0.0000,1999.0000,1656.0000,1500.0000,1985.0000
168288.7030,2.0000,1983.0000,1156.0000,1000.0000,530.0000,0.0000,-4.0000,-157.0000,173.0000,-10606.0000,0.2082,-0.4877,-0.0171,0.8476,144.6800,-74.9300,-107.2500,-21.1800,-2.3100,11.3700,0.0000,0.0000,-0.0000,1999.0000,1656.0000,1500.0000,1985.0000
168305.8460,2.0000,1000.0000,1656.0000,2000.0000,573.0000,-43.0000,0.0000,-439.0000,-232.0000,-7430.0000,0.2465,-0.4656,0.0505,0.8485,144.2000,-74.9600,-107.2500,-20.6800,-2.1000,11.7300,0.0000,0.0000,-0.0000,1011.0000,1167.0000,1500.0000,1068.0000
168322.9420,2.0000,1000.0000,1656.0000,2000.0000,596.0000,-69.0000,10.0000,-165.0000,-505.0000,-3755.0000,0.2852,-0.4348,0.1218,0.8455,143.6300,-75.0000,-107.2600,-20.6700,-1.9000,11.9600,0.0000,0.0000,-0.0000,1011.0000,1167.0000,1500.0000,1068.0000
168339.6870,2.0000,1000.0000,1656.0000,2000.0000,574.0000,-41.0000,30.0000,-279.0000,-427.0000,-329.0000,0.3191,-0.4018,0.1926,0.8365,143.0600,-75.0400,-107.2600,-21.0000,-1.8400,12.0600,0.0000,0.0000,-0.0000,1011.0000,1167.0000,1500.0000,1068.0000
168356.6290,2.0000,1000.0000,1656.0000,2000.0000,502.0000,4.0000,59.0000,-367.0000,-563.0000,2125.0000,0.3441,-0.3716,0.2601,0.8221,143.0600,-75.0400,-107.2600,-21.0000,-1.8400,12.0600,0.0000,0.0000,-0.0000,1011.0000,1167.0000,1500.0000,1068.0000
168373.1460,2.0000,1000.0000,1656.0000,2000.0000,356.0000,49.0000,93.0000,-504.0000,-743.0000,2402.0000,0.3552,-0.3504,0.3159,0.8070,142.5200,-75.0700,-107.2500,-21.4400,-1.9600,12.0900,0.0000,0.0000,-0.0000,1011.0000,1167.0000,1500.0000,1068.0000
168389.9420,2.0000,1000.0000,1656.0000,2000.0000,170.0000,69.0000,128.0000,-854.0000,-683.0000,1062.0000,0.3510,-0.3391,0.3551,0.7973,142.0100,-75.1100,-107.2200,-21.7700,-2.1600,12.1000,0.0000,0.0000,-0.0000,1014.0000,1170.0000,1500.0000,1042.0000
168406.7350,2.0000,1000.0000,1656.0000,2000.0000,-8.0000,61.0000,153.0000,-1091.0000,-141.0000,-585.0000,0.3335,-0.3358,0.3739,0.7976,141.5400,-75.1500,-107.1400,-21.9300,-2.2300,12.2400,0.0000,0.0000,-0.0000,1014.0000,1170.0000,1500.0000,1042.0000
168423.8330,2.0000,1000.0000,1656.0000,2000.0000,-131.0000,35.0000,168.0000,-1370.0000,382.0000,-2049.0000,0.3074,-0.3361,0.3754,0.8072,141.0100,-75.1900,-107.0100,-21.9500,-2.1800,12.4100,0.0000,0.0000,-0.0000,1014.0000,1170.0000,1500.0000,1042.0000
168440.8260,2.0000,1000.0000,1656.0000,2000.0000,-217.0000,9.0000,176.0000,-1495.0000,675.0000,-2258.0000,0.2760,-0.3370,0.3632,0.8236,140.5000,-75.2400,-106.8500,-21.9000,-2.0100,12.5900,0.0000,0.0000,-0.0000,1014.0000,1170.0000,1500.0000,1042.0000
168457.6890,2.0000,1000.0000,1656.0000,2000.0000,-265.0000,-11.0000,170.0000,-1594.0000,911.0000,-1174.0000,0.2426,-0.3372,0.3421,0.8429,140.5000,-75.2400,-106.8500,-21.9000,-2.0100,12.5900,0.0000,0.0000,-0.0000,1014.0000,1170.0000,1500.0000,1042.0000
168474.4160,2.0000,1000.0000,1656.0000,2000.0000,-306.0000,-32.0000,147.0000,-1625.0000,1583.0000,494.0000,0.2099,-0.3360,0.3135,0.8630,140.0100,-75.2800,-106.6800,-21.8400,-1.8700,12.7200,0.0000,0.0000,-0.0000,1014.0000,1170.0000,1500.0000,1042.0000
168491.1470,2.0000,1000.0000,1656.0000,2000.0000,-345.0000,-51.0000,112.0000,-1606.0000,2006.0000,2778.0000,0.1797,-0.3341,0.2771,0.8828,139.5400,-75.3200,-106.5000,-21.8500,-1.8200,12.7300,0.0000,0.0000,-0.0000,1014.0000,1170.0000,1500.0000,1042.0000
168508.0790,2.0000,1836.0000,1000.0000,1352.0000,-373.0000,-54.0000,81.0000,-1482.0000,1764.0000,5214.0000,0.1517,-0.3321,0.2329,0.9014,139.0800,-75.3600,-106.3100,-21.9800,-1.8700,12.5700,0.0000,0.0000,-0.0000,1996.0000,1154.0000,1500.0000,1846.0000
168524.9260,2.0000,1836.0000,1000.0000,1351.0000,-382.0000,-42.0000,40.0000,-1318.0000,1763.0000,7154.0000,0.1266,-0.3315,0.1841,0.9166,138.5800,-75.4000,-106.1300,-22.2200,-2.0500,12.2600,0.0000,0.0000,-0.0000,1996.0000,1154.0000,1500.0000,1846.0000
168541.5310,2.0000,1836.0000,1000.0000,1351.0000,-345.0000,-33.0000,-3.0000,-888.0000,1485.0000,8027.0000,0.1077,-0.3323,0.1353,0.9272,138.0900,-75.4500,-105.9500,-22.5600,-2.2300,11.8100,0.0000,0.0000,-0.0000,1996.0000,1154.0000,1500.0000,1846.0000
168558.2650,2.0000,1836.0000,1000.0000,1351.0000,-260.0000,-29.0000,-42.0000,-264.0000,956.0000,8278.0000,0.0968,-0.3331,0.0924,0.9333,138.0900,-75.4500,-105.9500,-22.5600,-2.2300,11.8100,0.0000,0.0000,-0.0000,1996.0000,1154.0000,1500.0000,1846.0000
168575.0020,2.0000,1836.0000,1000.0000,1351.0000,-147.0000,-32.0000,-84.0000,143.0000,858.0000,8295.0000,0.0967,-0.3323,0.0618,0.9362,137.5900,-75.5000,-105.7800,-22.9600,-2.3800,11.3600,0.0000,0.0000,-0.0000,1996.0000,1154.0000,1500.0000,1846.0000
168591.7970,2.0000,1453.0000,1000.0000,1501.0000,-16.0000,-38.0000,-123.0000,49.0000,436.0000,8411.0000,0.1078,-0.3294,0.0451,0.9369,137.1000,-75.5600,-105.6100,-23.3600,-2.4900,10.9500,0.0000,0.0000,-0.0000,1947.0000,1052.0000,1500.0000,1483.0000
168608.6550,2.0000,1453.0000,1000.0000,1502.0000,103.0000,-36.0000,-156.0000,-82.0000,287.0000,8087.0000,0.1302,-0.3244,0.0447,0.9358,136.6200,-75.6100,-105.4500,-23.7100,-2.6100,10.5300,0.0000,0.0000,-0.0000,1947.0000,1052.0000,1500.0000,1483.0000
168625.5680,2.0000,1453.0000,1000.0000,1502.0000,192.0000,-39.0000,-184.0000,-417.0000,290.0000,6696.0000,0.1609,-0.3175,0.0565,0.9328,136.1000,-75.6700,-105.2900,-23.9900,-2.7400,10.1600,0.0000,0.0000,-0.0000,1947.0000,1052.0000,1500.0000,1483.0000
168642.1530,2.0000,1453.0000,1000.0000,1502.0000,233.0000,-57.0000,-199.0000,-636.0000,86.0000,5320.0000,0.1968,-0.3075,0.0757,0.9279,136.1000,-75.6700,-105.2900,-23.9900,-2.7400,10.1600,0.0000,0.0000,-0.0000,1947.0000,1052.0000,1500.0000,1483.0000
168658.8620,2.0000,1453.0000,1000.0000,1502.0000,242.0000,-82.0000,-202.0000,-638.0000,-366.0000,4935.0000,0.2347,-0.2930,0.0964,0.9218,135.5800,-75.7400,-105.1400,-24.0900,-2.8700,9.8900,0.0000,0.0000,-0.0000,1947.0000,1052.0000,1500.0000,1483.0000
168675.5390,2.0000,1453.0000,1000.0000,1502.0000,244.0000,-95.0000,-194.0000,-441.0000,-797.0000,6206.0000,0.2719,-0.2753,0.1171,0.9146,135.0700,-75.8000,-104.9800,-24.0700,-3.0400,9.6900,0.0000,0.0000,-0.0000,1947.0000,1052.0000,1500.0000,1483.0000
168692.3640,2.0000,1321.0000,1027.0000,1915.0000,251.0000,-108.0000,-175.0000,-428.0000,-1265.0000,7094.0000,0.3073,-0.2547,0.1384,0.9064,134.5800,-75.8700,-104.8300,-24.0200,-3.3000,9.4400,0.0000,0.0000,-0.0000,1531.0000,1056.0000,1500.0000,1358.0000
168709.2290,2.0000,1321.0000,1027.0000,1915.0000,265.0000,-128.0000,-143.0000,-320.0000,-1790.0000,7623.0000,0.3393,-0.2303,0.1612,0.8977,134.1000,-75.9400,-104.6800,-23.9300,-3.6500,9.1100,0.0000,0.0000,-0.0000,1531.0000,1056.0000,1500.0000,1358.0000
168726.3120,2.0000,1321.0000,1027.0000,1915.0000,267.0000,-143.0000,-107.0000,-197.0000,-1756.0000,8457.0000,0.3673,-0.2014,0.1855,0.8889,133.5900,-76.0300,-104.5300,-23.8900,-4.1000,8.7300,0.0000,0.0000,-0.0000,1531.0000,1056.0000,1500.0000,1358.0000
168743.3310,2.0000,1321.0000,1027.0000,1915.0000,241.0000,-166.0000,-74.0000,-58.0000,-1457.0000,9460.0000,0.3900,-0.1696,0.2079,0.8809,133.5900,-76.0300,-104.5300,-23.8900,-4.1000,8.7300,0.0000,0.0000,-0.0000,1531.0000,1056.0000,1500.0000,1358.0000
168760.0720,2.0000,1321.0000,1027.0000,1915.0000,198.0000,-187.0000,-38.0000,5.0000,-1525.0000,10593.0000,0.4067,-0.1361,0.2243,0.8751,133.0800,-76.1200,-104.3800,-23.8200,-4.5900,8.2600,0.0000,0.0000,-0.0000,1531.0000,1056.0000,1500.0000,1358.0000
168776.9280,2.0000,1321.0000,1027.0000,1915.0000,146.0000,-196.0000,-10.0000,-8.0000,-1319.0000,11918.0000,0.4180,-0.1017,0.2342,0.8718,132.6000,-76.2200,-104.2400,-23.6900,-5.1200,7.6900,0.0000,0.0000,-0.0000,1531.0000,1056.0000,1500.0000,1358.0000
168793.8030,2.0000,1629.0000,1000.0000,1510.0000,107.0000,-182.0000,7.0000,-55.0000,-1136.0000,13123.0000,0.4251,-0.0698,0.2384,0.8704,132.1300,-76.3300,-104.1100,-23.4800,-5.6700,6.9800,0.0000,0.0000,-0.0000,1944.0000,1048.0000,1500.0000,1650.0000
168810.6190,2.0000,1630.0000,1000.0000,1509.0000,94.0000,-151.0000,15.0000,-116.0000,-1049.0000,13773.0000,0.4292,-0.0421,0.2403,0.8696,131.6800,-76.4500,-104.0000,-23.1800,-6.2100,6.1300,0.0000,0.0000,-0.0000,1944.0000,1048.0000,1500.0000,1650.0000
168827.6040,2.0000,1630.0000,1000.0000,1509.0000,104.0000,-110.0000,13.0000,-35.0000,-1111.0000,13644.0000,0.4317,-0.0188,0.2441,0.8682,131.1900,-76.5800,-103.8900,-22.9000,-6.7500,5.2200,0.0000,0.0000,-0.0000,1944.0000,1048.0000,1500.0000,1650.0000
168844.4430,2.0000,1630.0000,1000.0000,1509.0000,130.0000,-63.0000,9.0000,82.0000,-988.0000,12890.0000,0.4329,-0.0003,0.2536,0.8650,131.1900,-76.5800,-103.8900,-22.9000,-6.7500,5.2200,0.0000,0.0000,-0.0000,1944.0000,1048.0000,1500.0000,1650.0000
168861.1610,2.0000,1630.0000,1000.0000,1509.0000,143.0000,-16.0000,9.0000,48.0000,-945.0000,11041.0000,0.4322,0.0132,0.2684,0.8608,130.7200,-76.7200,-103.8100,-22.6000,-7.2300,4.3800,0.0000,0.0000,-0.0000,1944.0000,1048.0000,1500.0000,1650.0000
168877.8850,2.0000,1630.0000,1000.0000,1509.0000,145.0000,12.0000,12.0000,-107.0000,-844.0000,9305.0000,0.4296,0.0226,0.2866,0.8560,130.2600,-76.8700,-103.7300,-22.2900,-7.6300,3.6800,0.0000,0.0000,-0.0000,1944.0000,1048.0000,1500.0000,1650.0000
168894.7080,2.0000,1944.0000,1000.0000,1510.0000,137.0000,34.0000,6.0000,-316.0000,-639.0000,7291.0000,0.4259,0.0284,0.3061,0.8509,129.8200,-77.0200,-103.6700,-21.9900,-7.9100,3.1600,0.0000,0.0000,-0.0000,1943.0000,1047.0000,1500.0000,1955.0000
168911.4950,2.0000,1952.0000,1000.0000,1511.0000,126.0000,41.0000,4.0000,-185.0000,-492.0000,5614.0000,0.4218,0.0314,0.3246,0.8460,129.4000,-77.1700,-103.6200,-21.7500,-8.0400,2.8400,0.0000,0.0000,-0.0000,1943.0000,1047.0000,1500.0000,1955.0000
168928.0330,2.0000,1952.0000,1000.0000,1511.0000,131.0000,27.0000,2.0000,150.0000,-483.0000,4188.0000,0.4187,0.0347,0.3421,0.8405,128.9300,-77.3400,-103.5700,-21.5500,-8.2500,2.7000,0.0000,0.0000,-0.0000,1943.0000,1047.0000,1500.0000,1955.0000
168944.8860,2.0000,1952.0000,1000.0000,1511.0000,148.0000,-3.0000,-4.0000,332.0000,-477.0000,2921.0000,0.4167,0.0413,0.3600,0.8337,128.9300,-77.3400,-103.5700,-21.5500,-8.2500,2.7000,0.0000,0.0000,-0.0000,1943.0000,1047.0000,1500.0000,1955.0000
168961.5020,2.0000,1952.0000,1000.0000,1511.0000,170.0000,-31.0000,-12.0000,300.0000,-287.0000,2150.0000,0.4167,0.0522,0.3783,0.8249,128.4700,-77.5100,-103.5200,-21.4200,-8.4200,2.7100,0.0000,0.0000,-0.0000,1943.0000,1047.0000,1500.0000,1955.0000
168978.2270,2.0000,1952.0000,1000.0000,1511.0000,189.0000,-66.0000,-22.0000,160.0000,-96.0000,1885.0000,0.4191,0.0676,0.3970,0.8137,128.0400,-77.6700,-103.4700,-21.3300,-8.5100,2.8200,0.0000,0.0000,-0.0000,1943.0000,1047.0000,1500.0000,1955.0000
168995.0960,2.0000,1254.0000,1563.0000,2000.0000,201.0000,-95.0000,-31.0000,372.0000,-155.0000,2589.0000,0.4241,0.0873,0.4155,0.7999,127.6100,-77.8300,-103.4100,-21.2400,-8.5600,2.9600,0.0000,0.0000,-0.0000,1019.0000,1085.0000,1500.0000,1293.0000
169012.1330,2.0000,1253.0000,1566.0000,2000.0000,203.0000,-113.0000,-37.0000,590.0000,-115.0000,3963.0000,0.4311,0.1099,0.4332,0.7839,127.1500,-78.0200,-103.3500,-21.0600,-8.8800,3.0500,0.0000,0.0000,-0.0000,1019.0000,1085.0000,1500.0000,1293.0000
169029.0420,2.0000,1253.0000,1566.0000,2000.0000,191.0000,-137.0000,-41.0000,166.0000,-65.0000,4953.0000,0.4399,0.1341,0.4486,0.7663,126.7000,-78.2100,-103.2800,-20.7700,-9.2700,3.0600,0.0000,0.0000,-0.0000,1019.0000,1085.0000,1500.0000,1293.0000
169045.5870,2.0000,1253.0000,1566.0000,2000.0000,126.0000,-147.0000,-34.0000,-5.0000,-232.0000,6393.0000,0.4495,0.1574,0.4581,0.7506,126.7000,-78.2100,-103.2800,-20.7700,-9.2700,3.0600,0.0000,0.0000,-0.0000,1019.0000,1085.0000,1500.0000,1293.0000
169062.2890,2.0000,1253.0000,1566.0000,2000.0000,38.0000,-153.0000,-20.0000,-188.0000,-379.0000,7629.0000,0.4598,0.1767,0.4578,0.7401,126.2700,-78.4000,-103.2100,-20.3500,-9.6800,3.0000,0.0000,0.0000,-0.0000,1019.0000,1085.0000,1500.0000,1293.0000
169079.0120,2.0000,1253.0000,1566.0000,2000.0000,-42.0000,-141.0000,-7.0000,-207.0000,-379.0000,8714.0000,0.4704,0.1910,0.4480,0.7359,125.8700,-78.5900,-103.1500,-19.8000,-10.1000,2.8800,0.0000,0.0000,-0.0000,1019.0000,1085.0000,1500.0000,1293.0000
169095.9630,2.0000,1996.0000,1000.0000,1668.0000,-109.0000,-131.0000,3.0000,-198.0000,-257.0000,9590.0000,0.4811,0.2000,0.4300,0.7373,125.4900,-78.7900,-103.0800,-19.1700,-10.5200,2.6800,0.0000,0.0000,-0.0000,1781.0000,1052.0000,1500.0000,1998.0000
169112.9250,2.0000,1997.0000,1000.0000,1668.0000,-154.0000,-106.0000,8.0000,-187.0000,-189.0000,9963.0000,0.4913,0.2034,0.4069,0.7428,125.0700,-79.0200,-103.0200,-18.5000,-10.9400,2.3700,0.0000,0.0000,-0.0000,1781.0000,1052.0000,1500.0000,1998.0000
169129.7460,2.0000,1997.0000,1000.0000,1668.0000,-181.0000,-84.0000,6.0000,-5.0000,-128.0000,9825.0000,0.5005,0.2013,0.3811,0.7508,124.6900,-79.2500,-102.9700,-17.8800,-11.3000,2.0000,0.0000,0.0000,-0.0000,1781.0000,1052.0000,1500.0000,1998.0000
169146.7180,2.0000,1997.0000,1000.0000,1668.0000,-154.0000,-74.0000,5.0000,441.0000,-200.0000,8749.0000,0.5090,0.1974,0.3561,0.7584,124.6900,-79.2500,-102.9700,-17.8800,-11.3000,2.0000,0.0000,0.0000,-0.0000,1781.0000,1052.0000,1500.0000,1998.0000
169163.5680,2.0000,1997.0000,1000.0000,1668.0000,-97.0000,-83.0000,-5.0000,777.0000,-201.0000,7910.0000,0.5163,0.1966,0.3362,0.7628,124.3200,-79.4800,-102.9300,-17.3500,-11.6100,1.6300,0.0000,0.0000,-0.0000,1781.0000,1052.0000,1500.0000,1998.0000
169180.5290,2.0000,1997.0000,1000.0000,1668.0000,-46.0000,-100.0000,-16.0000,970.0000,-153.0000,7568.0000,0.5236,0.2010,0.3218,0.7628,123.9800,-79.7100,-102.9000,-16.9500,-11.8700,1.3300,0.0000,0.0000,-0.0000,1781.0000,1052.0000,1500.0000,1998.0000
169197.0660,2.0000,1997.0000,1000.0000,1622.0000,-9.0000,-123.0000,-28.0000,1075.0000,-383.0000,8004.0000,0.5315,0.2100,0.3114,0.7593,123.6500,-79.9400,-102.8700,-16.6100,-12.0800,1.0400,0.0000,0.0000,-0.0000,1952.0000,1084.0000,1500.0000,1998.0000
169213.9670,2.0000,1997.0000,1000.0000,1465.0000,19.0000,-142.0000,-36.0000,1114.0000,-473.0000,8380.0000,0.5406,0.2239,0.3026,0.7524,123.2900,-80.2000,-102.8400,-16.1500,-12.3500,0.7400,0.0000,0.0000,-0.0000,1952.0000,1084.0000,1500.0000,1998.0000
169230.7820,2.0000,1997.0000,1000.0000,1465.0000,46.0000,-147.0000,-40.0000,1257.0000,-573.0000,9390.0000,0.5496,0.2405,0.2960,0.7433,122.9400,-80.4600,-102.8100,-15.6300,-12.5900,0.4100,0.0000,0.0000,-0.0000,1952.0000,1084.0000,1500.0000,1998.0000
169247.8670,2.0000,1997.0000,1000.0000,1465.0000,81.0000,-142.0000,-47.0000,1333.0000,-724.0000,10437.0000,0.5579,0.2600,0.2928,0.7317,122.9400,-80.4600,-102.8100,-15.6300,-12.5900,0.4100,0.0000,0.0000,-0.0000,1952.0000,1084.0000,1500.0000,1998.0000
169264.7060,2.0000,1997.0000,1000.0000,1465.0000,108.0000,-130.0000,-48.0000,1543.0000,-838.0000,11249.0000,0.5645,0.2799,0.2938,0.7188,122.6200,-80.7200,-102.7900,-15.0100,-12.8000,0.0200,0.0000,0.0000,-0.0000,1952.0000,1084.0000,1500.0000,1998.0000
169281.5260,2.0000,1997.0000,1000.0000,1465.0000,124.0000,-107.0000,-47.0000,1484.0000,-809.0000,11174.0000,0.5691,0.2995,0.2983,0.7053,122.3200,-80.9700,-102.7800,-14.3100,-12.9900,-0.4000,0.0000,0.0000,-0.0000,1952.0000,1084.0000,1500.0000,1998.0000
169298.3810,2.0000,1997.0000,1323.0000,2000.0000,142.0000,-90.0000,-45.0000,1501.0000,-722.0000,10732.0000,0.5715,0.3184,0.3061,0.6915,122.0500,-81.2100,-102.7800,-13.6000,-13.1200,-0.7900,0.0000,0.0000,-0.0000,1204.0000,1060.0000,1500.0000,1998.0000
169315.4510,2.0000,1997.0000,1356.0000,2000.0000,154.0000,-86.0000,-45.0000,1262.0000,-778.0000,9598.0000,0.5725,0.3380,0.3162,0.6768,121.7600,-81.4900,-102.7800,-12.8400,-13.3000,-1.1200,0.0000,0.0000,-0.0000,1204.0000,1060.0000,1500.0000,1998.0000
169332.3480,2.0000,1997.0000,1356.0000,2000.0000,148.0000,-81.0000,-43.0000,1173.0000,-437.0000,8620.0000,0.5724,0.3572,0.3269,0.6617,121.4900,-81.7600,-102.7800,-12.1700,-13.4100,-1.3400,0.0000,0.0000,-0.0000,1204.0000,1060.0000,1500.0000,1998.0000
169349.1060,2.0000,1997.0000,1356.0000,2000.0000,99.0000,-91.0000,-36.0000,985.0000,-215.0000,8079.0000,0.5732,0.3739,0.3343,0.6480,121.4900,-81.7600,-102.7800,-12.1700,-13.4100,-1.3400,0.0000,0.0000,-0.0000,1204.0000,1060.0000,1500.0000,1998.0000
169365.9130,2.0000,1997.0000,1356.0000,2000.0000,25.0000,-104.0000,-23.0000,863.0000,-362.0000,7734.0000,0.5769,0.3865,0.3338,0.6375,121.2500,-82.0200,-102.7900,-11.6100,-13.4700,-1.5000,0.0000,0.0000,-0.0000,1204.0000,1060.0000,1500.0000,1998.0000
169382.6450,2.0000,1997.0000,1356.0000,2000.0000,-44.0000,-122.0000,-10.0000,871.0000,-307.0000,7354.0000,0.5839,0.3948,0.3245,0.6309,121.0100,-82.2800,-102.8000,-11.0800,-13.4800,-1.6300,0.0000,0.0000,-0.0000,1204.0000,1060.0000,1500.0000,1998.0000
169399.4090,2.0000,1997.0000,1000.0000,1776.0000,-77.0000,-142.0000,-3.0000,948.0000,-262.0000,7764.0000,0.5937,0.4013,0.3079,0.6259,120.8000,-82.5400,-102.8100,-10.6000,-13.4500,-1.7300,0.0000,0.0000,-0.0000,1677.0000,1049.0000,1500.0000,1998.0000
169416.4910,2.0000,1997.0000,1000.0000,1776.0000,-101.0000,-162.0000,-2.0000,948.0000,-231.0000,8507.0000,0.6059,0.4069,0.2861,0.6208,120.5700,-82.8200,-102.8300,-9.9400,-13.4900,-1.8700,0.0000,0.0000,-0.0000,1677.0000,1049.0000,1500.0000,1998.0000
169433.1260,2.0000,1997.0000,1000.0000,1776.0000,-102.0000,-170.0000,-7.0000,973.0000,-225.0000,9336.0000,0.6189,0.4125,0.2621,0.6148,120.5700,-82.8200,-102.8300,-9.9400,-13.4900,-1.8700,0.0000,0.0000,-0.0000,1677.0000,1049.0000,1500.0000,1998.0000
169450.2230,2.0000,1997.0000,1000.0000,1776.0000,-74.0000,-174.0000,-19.0000,1265.0000,-211.0000,10412.0000,0.6317,0.4194,0.2389,0.6066,120.3500,-83.1000,-102.8500,-9.2400,-13.4500,-2.0900,0.0000,0.0000,-0.0000,1677.0000,1049.0000,1500.0000,1998.0000
169467.1100,2.0000,1997.0000,1000.0000,1776.0000,-47.0000,-183.0000,-33.0000,1323.0000,-100.0000,10954.0000,0.6434,0.4286,0.2189,0.5953,120.1700,-83.3700,-102.8700,-8.5100,-13.3500,-2.3900,0.0000,0.0000,-0.0000,1677.0000,1049.0000,1500.0000,1998.0000
169483.8370,2.0000,1997.0000,1000.0000,1776.0000,-37.0000,-185.0000,-45.0000,1398.0000,-84.0000,11532.0000,0.6546,0.4395,0.2006,0.5815,120.0000,-83.6200,-102.9000,-7.7800,-13.1800,-2.7500,0.0000,0.0000,-0.0000,1677.0000,1049.0000,1500.0000,1998.0000
169500.9350,2.0000,1997.0000,1000.0000,1740.0000,-18.0000,-178.0000,-52.0000,1485.0000,-274.0000,12012.0000,0.6654,0.4511,0.1838,0.5657,119.8500,-83.8700,-102.9300,-7.0300,-12.9500,-3.1300,0.0000,0.0000,-0.0000,1713.0000,1049.0000,1500.0000,1998.0000
169517.9330,2.0000,1997.0000,1000.0000,1740.0000,-14.0000,-171.0000,-57.0000,1548.0000,-429.0000,12354.0000,0.6752,0.4625,0.1691,0.5491,119.7000,-84.1400,-102.9800,-6.0800,-12.7400,-3.5200,0.0000,0.0000,-0.0000,1713.0000,1049.0000,1500.0000,1998.0000
169534.9660,2.0000,1997.0000,1000.0000,1740.0000,-9.0000,-156.0000,-61.0000,1507.0000,-648.0000,12744.0000,0.6843,0.4730,0.1561,0.5325,119.5800,-84.4000,-103.0200,-5.1500,-12.4600,-3.9000,0.0000,0.0000,-0.0000,1713.0000,1049.0000,1500.0000,1998.0000
169551.7210,2.0000,1997.0000,1000.0000,1740.0000,-5.0000,-133.0000,-66.0000,1391.0000,-537.0000,12424.0000,0.6926,0.4819,0.1458,0.5165,119.5800,-84.4000,-103.0200,-5.1500,-12.4600,-3.9000,0.0000,0.0000,-0.0000,1713.0000,1049.0000,1500.0000,1998.0000
169568.2470,2.0000,1997.0000,1000.0000,1740.0000,-2.0000,-118.0000,-69.0000,1378.0000,-542.0000,11807.0000,0.7000,0.4893,0.1381,0.5015,119.4800,-84.6500,-103.0800,-4.2900,-12.1000,-4.2700,0.0000,0.0000,-0.0000,1713.0000,1049.0000,1500.0000,1998.0000
169585.0420,2.0000,1997.0000,1000.0000,1740.0000,9.0000,-104.0000,-72.0000,1377.0000,-779.0000,11146.0000,0.7068,0.4961,0.1324,0.4866,119.3900,-84.8900,-103.1500,-3.5400,-11.7400,-4.6000,0.0000,0.0000,-0.0000,1713.0000,1049.0000,1500.0000,1998.0000
169601.7710,2.0000,1997.0000,1000.0000,1748.0000,20.0000,-93.0000,-76.0000,1170.0000,-767.0000,10499.0000,0.7125,0.5031,0.1290,0.4719,119.3300,-85.1100,-103.2200,-2.8300,-11.3900,-4.8700,0.0000,0.0000,-0.0000,1679.0000,1049.0000,1500.0000,1998.0000
169618.8430,2.0000,1997.0000,1000.0000,1774.0000,25.0000,-83.0000,-73.0000,1049.0000,-769.0000,10032.0000,0.7175,0.5100,0.1270,0.4571,119.2700,-85.3600,-103.2900,-2.0000,-11.0800,-5.0700,0.0000,0.0000,-0.0000,1679.0000,1049.0000,1500.0000,1998.0000
169635.7500,2.0000,1997.0000,1000.0000,1774.0000,23.0000,-77.0000,-67.0000,1158.0000,-912.0000,9483.0000,0.7218,0.5164,0.1254,0.4433,119.2700,-85.3600,-103.2900,-2.0000,-11.0800,-5.0700,0.0000,0.0000,-0.0000,1679.0000,1049.0000,1500.0000,1998.0000
169652.6620,2.0000,1997.0000,1000.0000,1774.0000,28.0000,-86.0000,-63.0000,1025.0000,-986.0000,8586.0000,0.7255,0.5231,0.1234,0.4298,119.2400,-85.6000,-103.3700,-1.2500,-10.7900,-5.2300,0.0000,0.0000,-0.0000,1679.0000,1049.0000,1500.0000,1998.0000
169669.5440,2.0000,1997.0000,1000.0000,1774.0000,33.0000,-91.0000,-57.0000,816.0000,-765.0000,7910.0000,0.7282,0.5310,0.1205,0.4162,119.2200,-85.8200,-103.4500,-0.5900,-10.5400,-5.3100,0.0000,0.0000,-0.0000,1679.0000,1049.0000,1500.0000,1998.0000
169686.2390,2.0000,1997.0000,1000.0000,1774.0000,33.0000,-97.0000,-51.0000,815.0000,-847.0000,7819.0000,0.7303,0.5392,0.1169,0.4028,119.2100,-86.0300,-103.5300,-0.0600,-10.3300,-5.3400,0.0000,0.0000,-0.0000,1679.0000,1049.0000,1500.0000,1998.0000
169702.8940,2.0000,1997.0000,1479.0000,2000.0000,31.0000,-101.0000,-43.0000,1096.0000,-992.0000,7916.0000,0.7321,0.5474,0.1121,0.3896,119.2100,-86.2500,-103.6100,0.4700,-10.1000,-5.3400,0.0000,0.0000,-0.0000,1085.0000,1065.0000,1500.0000,1998.0000
169719.5970,2.0000,1997.0000,1480.0000,2000.0000,34.0000,-108.0000,-36.0000,1212.0000,-1015.0000,7991.0000,0.7334,0.5561,0.1060,0.3765,119.2300,-86.4800,-103.6900,1.2200,-9.8300,-5.3200,0.0000,0.0000,-0.0000,1085.0000,1065.0000,1500.0000,1998.0000
169736.4850,2.0000,1997.0000,1480.0000,2000.0000,21.0000,-117.0000,-27.0000,1065.0000,-884.0000,7775.0000,0.7343,0.5650,0.0981,0.3634,119.2300,-86.4800,-103.6900,1.2200,-9.8300,-5.3200,0.0000,0.0000,-0.0000,1085.0000,1065.0000,1500.0000,1998.0000
169753.2820,2.0000,1997.0000,1480.0000,2000.0000,-16.0000,-124.0000,-11.0000,1176.0000,-740.0000,8069.0000,0.7367,0.5713,0.0868,0.3511,119.2700,-86.6900,-103.7600,1.9000,-9.5500,-5.2900,0.0000,0.0000,-0.0000,1085.0000,1065.0000,1500.0000,1998.0000
169770.0160,2.0000,1997.0000,1480.0000,2000.0000,-55.0000,-126.0000,8.0000,1339.0000,-879.0000,8589.0000,0.7414,0.5736,0.0715,0.3410,119.3200,-86.9000,-103.8300,2.5200,-9.2500,-5.2700,0.0000,0.0000,-0.0000,1085.0000,1065.0000,1500.0000,1998.0000
169786.8570,2.0000,1997.0000,1480.0000,2000.0000,-90.0000,-127.0000,22.0000,1307.0000,-848.0000,9100.0000,0.7480,0.5718,0.0527,0.3328,119.3800,-87.0900,-103.9100,3.1200,-8.9000,-5.2700,0.0000,0.0000,-0.0000,1085.0000,1065.0000,1500.0000,1998.0000
169803.8990,2.0000,1997.0000,1000.0000,1737.0000,-120.0000,-122.0000,34.0000,1279.0000,-691.0000,9338.0000,0.7563,0.5662,0.0313,0.3263,119.4500,-87.2800,-103.9800,3.7100,-8.4800,-5.3000,0.0000,0.0000,-0.0000,1716.0000,1049.0000,1500.0000,1998.0000
169820.6310,2.0000,1997.0000,1000.0000,1737.0000,-139.0000,-119.0000,42.0000,1412.0000,-608.0000,9622.0000,0.7656,0.5574,0.0086,0.3210,119.5500,-87.4800,-104.0600,4.4200,-7.9500,-5.3900,0.0000,0.0000,-0.0000,1716.0000,1049.0000,1500.0000,1998.0000
169837.2870,2.0000,1997.0000,1000.0000,1737.0000,-128.0000,-121.0000,42.0000,1293.0000,-491.0000,9056.0000,0.7746,0.5475,-0.0145,0.3163,119.5500,-87.4800,-104.0600,4.4200,-7.9500,-5.3900,0.0000,0.0000,-0.0000,1716.0000,1049.0000,1500.0000,1998.0000
169853.9720,2.0000,1997.0000,1000.0000,1737.0000,-93.0000,-130.0000,34.0000,1119.0000,-221.0000,8400.0000,0.7811,0.5405,-0.0368,0.3104,119.6600,-87.6600,-104.1300,5.0200,-7.4300,-5.5200,0.0000,0.0000,-0.0000,1716.0000,1049.0000,1500.0000,1998.0000
169870.8030,2.0000,1997.0000,1000.0000,1737.0000,-59.0000,-140.0000,21.0000,1173.0000,-35.0000,8326.0000,0.7848,0.5378,-0.0578,0.3024,119.7800,-87.8300,-104.2100,5.4900,-6.9900,-5.6600,0.0000,0.0000,-0.0000,1716.0000,1049.0000,1500.0000,1998.0000
169887.4240,2.0000,1661.0000,1000.0000,1594.0000,-32.0000,-153.0000,6.0000,1242.0000,55.0000,8654.0000,0.7862,0.5390,-0.0773,0.2923,119.9000,-87.9800,-104.2900,5.8700,-6.5900,-5.8200,0.0000,0.0000,-0.0000,1859.0000,1048.0000,1500.0000,1680.0000
169904.3150,2.0000,1661.0000,1000.0000,1594.0000,-15.0000,-168.0000,-11.0000,1386.0000,20.0000,9323.0000,0.7861,0.5431,-0.0968,0.2789,120.0300,-88.1300,-104.3800,6.2600,-6.1200,-6.0000,0.0000,0.0000,-0.0000,1859.0000,1048.0000,1500.0000,1680.0000
169921.3290,2.0000,1661.0000,1000.0000,1594.0000,5.0000,-162.0000,-27.0000,1152.0000,12.0000,9993.0000,0.7846,0.5495,-0.1148,0.2632,120.1900,-88.2800,-104.4600,6.7200,-5.5000,-6.2000,0.0000,0.0000,-0.0000,1859.0000,1048.0000,1500.0000,1680.0000
169937.9900,2.0000,1661.0000,1000.0000,1594.0000,17.0000,-156.0000,-41.0000,1029.0000,217.0000,10021.0000,0.7821,0.5574,-0.1298,0.2466,120.1900,-88.2800,-104.4600,6.7200,-5.5000,-6.2000,0.0000,0.0000,-0.0000,1859.0000,1048.0000,1500.0000,1680.0000
169954.6400,2.0000,1661.0000,1000.0000,1594.0000,28.0000,-150.0000,-53.0000,978.0000,180.0000,10121.0000,0.7786,0.5664,-0.1425,0.2293,120.3600,-88.4200,-104.5500,7.1100,-4.8700,-6.3800,0.0000,0.0000,-0.0000,1859.0000,1048.0000,1500.0000,1680.0000
169971.5530,2.0000,1661.0000,1000.0000,1594.0000,28.0000,-140.0000,-66.0000,867.0000,21.0000,9966.0000,0.7750,0.5757,-0.1532,0.2109,120.5300,-88.5500,-104.6400,7.4200,-4.2700,-6.5300,0.0000,0.0000,-0.0000,1859.0000,1048.0000,1500.0000,1680.0000
169988.4500,2.0000,1237.0000,1512.0000,2000.0000,34.0000,-136.0000,-76.0000,773.0000,-170.0000,9743.0000,0.7710,0.5853,-0.1618,0.1919,120.6900,-88.6500,-104.7200,7.6900,-3.7100,-6.6400,0.0000,0.0000,-0.0000,1063.0000,1076.0000,1500.0000,1278.0000
170005.5240,2.0000,1237.0000,1513.0000,2000.0000,31.0000,-126.0000,-82.0000,893.0000,-139.0000,10179.0000,0.7668,0.5949,-0.1689,0.1723,120.8700,-88.7500,-104.8100,7.9600,-3.1300,-6.6800,0.0000,0.0000,-0.0000,1063.0000,1076.0000,1500.0000,1278.0000
170022.5590,2.0000,1237.0000,1513.0000,2000.0000,10.0000,-116.0000,-81.0000,583.0000,-234.0000,9747.0000,0.7636,0.6025,-0.1748,0.1527,121.0800,-88.8500,-104.9000,8.3300,-2.4400,-6.7100,0.0000,0.0000,-0.0000,1063.0000,1076.0000,1500.0000,1278.0000
170039.3780,2.0000,1237.0000,1513.0000,2000.0000,-25.0000,-104.0000,-74.0000,417.0000,-280.0000,9617.0000,0.7629,0.6061,-0.1803,0.1343,121.0800,-88.8500,-104.9000,8.3300,-2.4400,-6.7100,0.0000,0.0000,-0.0000,1063.0000,1076.0000,1500.0000,1278.0000
170056.1770,2.0000,1237.0000,1513.0000,2000.0000,-61.0000,-87.0000,-62.0000,301.0000,-322.0000,9354.0000,0.7656,0.6047,-0.1856,0.1172,121.2900,-88.9300,-105.0000,8.5900,-1.7900,-6.6900,0.0000,0.0000,-0.0000,1063.0000,1076.0000,1500.0000,1278.0000
170073.0390,2.0000,1237.0000,1513.0000,2000.0000,-89.0000,-70.0000,-50.0000,147.0000,-473.0000,8764.0000,0.7710,0.5991,-0.1905,0.1022,121.4900,-88.9900,-105.1000,8.7600,-1.1800,-6.6500,0.0000,0.0000,-0.0000,1063.0000,1076.0000,1500.0000,1278.0000
170089.5450,2.0000,1240.0000,1000.0000,1799.0000,-107.0000,-53.0000,-39.0000,27.0000,-529.0000,8137.0000,0.7784,0.5901,-0.1945,0.0896,121.6900,-89.0400,-105.2000,8.8700,-0.6400,-6.5900,0.0000,0.0000,-0.0000,1673.0000,1057.0000,1500.0000,1282.0000
170106.1950,2.0000,1241.0000,1000.0000,1772.0000,-117.0000,-41.0000,-27.0000,-38.0000,-496.0000,7351.0000,0.7868,0.5791,-0.1982,0.0791,121.8900,-89.0700,-105.3100,8.9700,-0.1300,-6.5200,0.0000,0.0000,-0.0000,1673.0000,1057.0000,1500.0000,1282.0000
170122.9940,2.0000,1241.0000,1000.0000,1772.0000,-124.0000,-38.0000,-15.0000,-171.0000,-466.0000,6580.0000,0.7961,0.5661,-0.2022,0.0700,122.1100,-89.0900,-105.4200,9.1000,0.3600,-6.4500,0.0000,0.0000,-0.0000,1673.0000,1057.0000,1500.0000,1282.0000
170140.1670,2.0000,1241.0000,1000.0000,1772.0000,-99.0000,-45.0000,-7.0000,-316.0000,-455.0000,5697.0000,0.8043,0.5534,-0.2073,0.0620,122.1100,-89.0900,-105.4200,9.1000,0.3600,-6.4500,0.0000,0.0000,-0.0000,1673.0000,1057.0000,1500.0000,1282.0000
170157.0250,2.0000,1241.0000,1000.0000,1772.0000,-65.0000,-60.0000,-7.0000,-354.0000,-286.0000,5069.0000,0.8095,0.5443,-0.2134,0.0547,122.3300,-89.1100,-105.5200,9.2000,0.7500,-6.3700,0.0000,0.0000,-0.0000,1673.0000,1057.0000,1500.0000,1282.0000
170173.9730,2.0000,1241.0000,1000.0000,1772.0000,-28.0000,-84.0000,-11.0000,-474.0000,-254.0000,4655.0000,0.8107,0.5399,-0.2215,0.0467,122.5400,-89.1200,-105.6300,9.2900,1.0400,-6.2800,0.0000,0.0000,-0.0000,1673.0000,1057.0000,1500.0000,1282.0000
170190.6970,2.0000,1241.0000,1000.0000,1772.0000,2.0000,-104.0000,-15.0000,-539.0000,-218.0000,4766.0000,0.8086,0.5395,-0.2316,0.0377,122.7600,-89.1200,-105.7400,9.3400,1.2700,-6.1800,0.0000,0.0000,-0.0000,1673.0000,1057.0000,1500.0000,1282.0000
170207.2610,2.0000,1072.0000,1564.0000,1196.0000,15.0000,-120.0000,-19.0000,-499.0000,-193.0000,5102.0000,0.8041,0.5418,-0.2431,0.0276,122.9700,-89.1100,-105.8400,9.3500,1.5600,-6.0800,0.0000,0.0000,-0.0000,1621.0000,1701.0000,1500.0000,1119.0000
170224.2910,2.0000,1069.0000,1580.0000,1182.0000,25.0000,-130.0000,-22.0000,-338.0000,-104.0000,5712.0000,0.7978,0.5455,-0.2565,0.0158,123.2000,-89.1000,-105.9400,9.3300,2.0100,-5.9900,0.0000,0.0000,-0.0000,1621.0000,1701.0000,1500.0000,1119.0000
170241.2680,2.0000,1069.0000,1580.0000,1182.0000,38.0000,-130.0000,-25.0000,-190.0000,-158.0000,6484.0000,0.7901,0.5503,-0.2699,0.0037,123.2000,-89.1000,-105.9400,9.3300,2.0100,-5.9900,0.0000,0.0000,-0.0000,1621.0000,1701.0000,1500.0000,1119.0000
170258.1090,2.0000,1069.0000,1580.0000,1182.0000,44.0000,-114.0000,-26.0000,-46.0000,-250.0000,7372.0000,0.7818,0.5561,-0.2820,-0.0076,123.4200,-89.0700,-106.0400,9.2700,2.5000,-5.9200,0.0000,0.0000,-0.0000,1621.0000,1701.0000,1500.0000,1119.0000
170275.0430,2.0000,1069.0000,1580.0000,1182.0000,54.0000,-82.0000,-25.0000,80.0000,-335.0000,8322.0000,0.7735,0.5626,-0.2913,-0.0166,123.6300,-89.0300,-106.1400,9.1500,3.0600,-5.8500,0.0000,0.0000,-0.0000,1621.0000,1701.0000,1500.0000,1119.0000
170291.9410,2.0000,1069.0000,1580.0000,1182.0000,79.0000,-35.0000,-22.0000,36.0000,-384.0000,8731.0000,0.7652,0.5713,-0.2961,-0.0211,123.8400,-88.9900,-106.2400,9.0000,3.6800,-5.7800,0.0000,0.0000,-0.0000,1621.0000,1701.0000,1500.0000,1119.0000
170308.6560,2.0000,1123.0000,2000.0000,1542.0000,103.0000,18.0000,-18.0000,-110.0000,-369.0000,8228.0000,0.7573,0.5821,-0.2955,-0.0201,124.0500,-88.9300,-106.3400,8.8000,4.3600,-5.6900,0.0000,0.0000,-0.0000,1001.0000,1958.0000,1500.0000,1171.0000
170325.6230,2.0000,1124.0000,2000.0000,1542.0000,121.0000,67.0000,-14.0000,-345.0000,-219.0000,6908.0000,0.7493,0.5954,-0.2895,-0.0132,124.2700,-88.8400,-106.4300,8.6200,5.0200,-5.5600,0.0000,0.0000,-0.0000,1001.0000,1958.0000,1500.0000,1171.0000
170342.4270,2.0000,1124.0000,2000.0000,1542.0000,91.0000,103.0000,-14.0000,-405.0000,109.0000,4885.0000,0.7433,0.6079,-0.2790,-0.0027,124.2700,-88.8400,-106.4300,8.6200,5.0200,-5.5600,0.0000,0.0000,-0.0000,1001.0000,1958.0000,1500.0000,1171.0000
170359.0520,2.0000,1124.0000,2000.0000,1542.0000,17.0000,135.0000,-15.0000,-472.0000,342.0000,2978.0000,0.7430,0.6145,-0.2651,0.0085,124.4800,-88.7500,-106.5300,8.5400,5.4700,-5.4200,0.0000,0.0000,-0.0000,1001.0000,1958.0000,1500.0000,1171.0000
170375.7320,2.0000,1124.0000,2000.0000,1542.0000,-71.0000,172.0000,-15.0000,-514.0000,450.0000,1228.0000,0.7513,0.6115,-0.2474,0.0191,124.6900,-88.6600,-106.6200,8.5600,5.6900,-5.2800,0.0000,0.0000,-0.0000,1001.0000,1958.0000,1500.0000,1171.0000
170392.6190,2.0000,1000.0000,2000.0000,1648.0000,-134.0000,200.0000,-15.0000,-576.0000,388.0000,-413.0000,0.7672,0.5996,-0.2260,0.0301,124.9000,-88.5700,-106.7100,8.6700,5.7100,-5.1300,0.0000,0.0000,-0.0000,1001.0000,1485.0000,1500.0000,1015.0000
170409.6090,2.0000,1000.0000,1985.0000,2000.0000,-176.0000,224.0000,-18.0000,-616.0000,433.0000,-2019.0000,0.7879,0.5805,-0.2012,0.0413,125.1200,-88.4700,-106.7900,8.8000,5.6200,-4.9400,0.0000,0.0000,-0.0000,1001.0000,1485.0000,1500.0000,1015.0000
170426.6770,2.0000,1000.0000,1985.0000,2000.0000,-200.0000,223.0000,-21.0000,-610.0000,565.0000,-3927.0000,0.8103,0.5569,-0.1746,0.0522,125.3600,-88.3700,-106.8800,8.9100,5.4700,-4.7500,0.0000,0.0000,-0.0000,1001.0000,1485.0000,1500.0000,1015.0000
170443.7740,2.0000,1000.0000,1985.0000,2000.0000,-235.0000,197.0000,-25.0000,-652.0000,705.0000,-5464.0000,0.8335,0.5286,-0.1489,0.0606,125.3600,-88.3700,-106.8800,8.9100,5.4700,-4.7500,0.0000,0.0000,-0.0000,1001.0000,1485.0000,1500.0000,1015.0000
170460.6220,2.0000,1000.0000,1985.0000,2000.0000,-277.0000,158.0000,-28.0000,-764.0000,814.0000,-6320.0000,0.8568,0.4954,-0.1272,0.0649,125.6000,-88.2700,-106.9700,9.0300,5.1500,-4.5000,0.0000,0.0000,-0.0000,1001.0000,1485.0000,1500.0000,1015.0000
170477.6340,2.0000,1000.0000,1985.0000,2000.0000,-320.0000,114.0000,-29.0000,-882.0000,801.0000,-6172.0000,0.8808,0.4557,-0.1110,0.0649,125.8200,-88.1800,-107.0600,9.1300,4.7500,-4.2000,0.0000,0.0000,-0.0000,1001.0000,1485.0000,1500.0000,1015.0000
170494.4580,2.0000,1000.0000,1071.0000,1065.0000,-347.0000,78.0000,-32.0000,-965.0000,760.0000,-5226.0000,0.9038,0.4117,-0.1000,0.0612,126.0400,-88.1100,-107.1500,9.1800,4.4000,-3.8100,0.0000,0.0000,-0.0000,1978.0000,1506.0000,1500.0000,1074.0000
170511.4350,2.0000,1000.0000,1027.0000,1019.0000,-373.0000,49.0000,-37.0000,-996.0000,741.0000,-3869.0000,0.9257,0.3627,-0.0931,0.0542,126.2600,-88.0200,-107.2300,9.1900,4.2300,-3.4000,0.0000,0.0000,-0.0000,1978.0000,1506.0000,1500.0000,1074.0000
170528.3780,2.0000,1000.0000,1027.0000,1019.0000,-391.0000,33.0000,-43.0000,-961.0000,680.0000,-2455.0000,0.9456,0.3097,-0.0888,0.0442,126.4900,-87.9300,-107.3100,9.1500,4.2800,-3.0200,0.0000,0.0000,-0.0000,1978.0000,1506.0000,1500.0000,1074.0000
170545.3630,2.0000,1000.0000,1027.0000,1019.0000,-379.0000,31.0000,-51.0000,-810.0000,602.0000,-1184.0000,0.9625,0.2556,-0.0850,0.0329,126.4900,-87.9300,-107.3100,9.1500,4.2800,-3.0200,0.0000,0.0000,-0.0000,1978.0000,1506.0000,1500.0000,1074.0000
170562.2410,2.0000,1000.0000,1027.0000,1019.0000,-343.0000,36.0000,-61.0000,-681.0000,562.0000,-172.0000,0.9754,0.2041,-0.0802,0.0206,126.7100,-87.8300,-107.3900,9.1000,4.4400,-2.7100,0.0000,0.0000,-0.0000,1978.0000,1506.0000,1500.0000,1074.0000
170579.1120,2.0000,1000.0000,1027.0000,1019.0000,-281.0000,44.0000,-78.0000,-550.0000,550.0000,409.0000,0.9844,0.1596,-0.0735,0.0073,126.9300,-87.7400,-107.4500,9.0500,4.6500,-2.5000,0.0000,0.0000,-0.0000,1978.0000,1506.0000,1500.0000,1074.0000
170596.1670,2.0000,1000.0000,1000.0000,1129.0000,-184.0000,51.0000,-93.0000,-532.0000,401.0000,730.0000,0.9899,0.1262,-0.0648,-0.0074,127.1300,-87.6400,-107.5100,9.0000,4.8500,-2.3400,0.0000,0.0000,-0.0000,1977.0000,1393.0000,1500.0000,1035.0000
170613.1530,2.0000,1000.0000,1000.0000,1130.0000,-61.0000,58.0000,-109.0000,-655.0000,229.0000,800.0000,0.9923,0.1091,-0.0549,-0.0230,127.3300,-87.5300,-107.5700,8.9500,5.0600,-2.2000,0.0000,0.0000,-0.0000,1977.0000,1393.0000,1500.0000,1035.0000
170630.0470,2.0000,1000.0000,1000.0000,1130.0000,68.0000,65.0000,-123.0000,-821.0000,140.0000,829.0000,0.9920,0.1113,-0.0442,-0.0400,127.5500,-87.4100,-107.6200,8.8900,5.2700,-2.0600,0.0000,0.0000,-0.0000,1977.0000,1393.0000,1500.0000,1035.0000
170646.9090,2.0000,1000.0000,1000.0000,1130.0000,175.0000,69.0000,-134.0000,-877.0000,59.0000,464.0000,0.9892,0.1308,-0.0332,-0.0578,127.5500,-87.4100,-107.6200,8.8900,5.2700,-2.0600,0.0000,0.0000,-0.0000,1977.0000,1393.0000,1500.0000,1035.0000
170663.7930,2.0000,1000.0000,1000.0000,1130.0000,249.0000,70.0000,-143.0000,-879.0000,159.0000,-167.0000,0.9834,0.1632,-0.0224,-0.0765,127.7500,-87.2900,-107.6700,8.8200,5.4600,-1.9200,0.0000,0.0000,-0.0000,1977.0000,1393.0000,1500.0000,1035.0000
170681.1730,2.0000,1000.0000,1000.0000,1130.0000,305.0000,69.0000,-147.0000,-884.0000,157.0000,-651.0000,0.9737,0.2059,-0.0118,-0.0964,127.9500,-87.1600,-107.7100,8.7600,5.6200,-1.7200,0.0000,0.0000,-0.0000,1977.0000,1393.0000,1500.0000,1035.0000
170697.7930,2.0000,1000.0000,1000.0000,1130.0000,342.0000,67.0000,-147.0000,-912.0000,88.0000,-988.0000,0.9606,0.2528,-0.0028,-0.1155,128.1400,-87.0400,-107.7500,8.6900,5.7300,-1.4700,0.0000,0.0000,-0.0000,1977.0000,1393.0000,1500.0000,1035.0000
170714.8290,2.0000,1000.0000,1875.0000,2000.0000,368.0000,62.0000,-142.0000,-919.0000,-68.0000,-1214.0000,0.9429,0.3048,0.0054,-0.1343,128.3400,-86.9100,-107.7800,8.6300,5.8100,-1.1900,0.0000,0.0000,-0.0000,1000.0000,1374.0000,1500.0000,1032.0000
170731.9190,2.0000,1000.0000,1875.0000,2000.0000,368.0000,49.0000,-130.0000,-877.0000,-250.0000,-1238.0000,0.9216,0.3571,0.0117,-0.1518,128.5400,-86.7700,-107.8000,8.5600,5.8500,-0.9100,0.0000,0.0000,-0.0000,1000.0000,1374.0000,1500.0000,1032.0000
170748.5630,2.0000,1000.0000,1875.0000,2000.0000,337.0000,34.0000,-116.0000,-742.0000,-298.0000,-957.0000,0.8990,0.4044,0.0154,-0.1673,128.5400,-86.7700,-107.8000,8.5600,5.8500,-0.9100,0.0000,0.0000,-0.0000,1000.0000,1374.0000,1500.0000,1032.0000
170765.5920,2.0000,1000.0000,1875.0000,2000.0000,276.0000,20.0000,-98.0000,-615.0000,-382.0000,-458.0000,0.8766,0.4454,0.0173,-0.1813,128.7300,-86.6400,-107.8200,8.5000,5.9000,-0.6400,0.0000,0.0000,-0.0000,1000.0000,1374.0000,1500.0000,1032.0000
170782.1880,2.0000,1000.0000,1875.0000,2000.0000,201.0000,7.0000,-75.0000,-541.0000,-481.0000,53.0000,0.8582,0.4754,0.0177,-0.1927,128.9200,-86.5000,-107.8400,8.4500,5.9800,-0.4200,0.0000,0.0000,-0.0000,1000.0000,1374.0000,1500.0000,1032.0000
170798.8470,2.0000,1757.0000,1458.0000,2000.0000,110.0000,0.0000,-49.0000,-558.0000,-565.0000,601.0000,0.8453,0.4945,0.0177,-0.2014,129.1100,-86.3700,-107.8500,8.3900,6.1000,-0.2100,0.0000,0.0000,-0.0000,1110.0000,1067.0000,1500.0000,1772.0000
170815.6760,2.0000,1758.0000,1457.0000,2000.0000,10.0000,1.0000,-21.0000,-654.0000,-630.0000,987.0000,0.8399,0.5016,0.0181,-0.2065,129.3000,-86.2300,-107.8600,8.3300,6.2600,-0.0200,0.0000,0.0000,-0.0000,1110.0000,1067.0000,1500.0000,1772.0000
170832.6480,2.0000,1758.0000,1457.0000,2000.0000,-77.0000,0.0000,6.0000,-595.0000,-563.0000,1032.0000,0.8422,0.4971,0.0194,-0.2077,129.4900,-86.0800,-107.8600,8.2400,6.4100,0.1600,0.0000,0.0000,-0.0000,1110.0000,1067.0000,1500.0000,1772.0000
170849.7160,2.0000,1758.0000,1457.0000,2000.0000,-132.0000,-8.0000,25.0000,-154.0000,-487.0000,838.0000,0.8504,0.4835,0.0210,-0.2062,129.4900,-86.0800,-107.8600,8.2400,6.4100,0.1600,0.0000,0.0000,-0.0000,1110.0000,1067.0000,1500.0000,1772.0000
170866.4650,2.0000,1758.0000,1457.0000,2000.0000,-149.0000,-28.0000,40.0000,303.0000,-446.0000,405.0000,0.8616,0.4649,0.0200,-0.2030,129.6700,-85.9300,-107.8600,8.1900,6.5600,0.3500,0.0000,0.0000,-0.0000,1110.0000,1067.0000,1500.0000,1772.0000
170883.3910,2.0000,1758.0000,1457.0000,2000.0000,-153.0000,-52.0000,46.0000,569.0000,-451.0000,390.0000,0.8736,0.4430,0.0171,-0.2006,129.8500,-85.7800,-107.8500,8.1900,6.6800,0.5700,0.0000,0.0000,-0.0000,1110.0000,1067.0000,1500.0000,1772.0000
170900.0900,2.0000,1998.0000,1000.0000,1528.0000,-150.0000,-71.0000,55.0000,708.0000,-598.0000,817.0000,0.8851,0.4210,0.0105,-0.1983,130.0300,-85.6300,-107.8400,8.2300,6.7900,0.8100,0.0000,0.0000,-0.0000,1926.0000,1051.0000,1500.0000,2000.0000
170916.7880,2.0000,2000.0000,1000.0000,1524.0000,-152.0000,-88.0000,64.0000,756.0000,-721.0000,1453.0000,0.8958,0.3991,0.0007,-0.1957,130.2200,-85.4800,-107.8200,8.2600,6.9600,1.0400,0.0000,0.0000,-0.0000,1926.0000,1051.0000,1500.0000,2000.0000
170933.4040,2.0000,2000.0000,1000.0000,1524.0000,-138.0000,-106.0000,70.0000,926.0000,-714.0000,1946.0000,0.9058,0.3770,-0.0119,-0.1930,130.4100,-85.3100,-107.7900,8.2700,7.1900,1.2200,0.0000,0.0000,-0.0000,1926.0000,1051.0000,1500.0000,2000.0000
170950.4020,2.0000,2000.0000,1000.0000,1524.0000,-102.0000,-130.0000,70.0000,1427.0000,-749.0000,2543.0000,0.9140,0.3571,-0.0281,-0.1905,130.4100,-85.3100,-107.7900,8.2700,7.1900,1.2200,0.0000,0.0000,-0.0000,1926.0000,1051.0000,1500.0000,2000.0000
170966.9170,2.0000,2000.0000,1000.0000,1524.0000,-53.0000,-151.0000,63.0000,1719.0000,-824.0000,3248.0000,0.9189,0.3426,-0.0482,-0.1896,130.5900,-85.1500,-107.7600,8.3000,7.4600,1.3600,0.0000,0.0000,-0.0000,1926.0000,1051.0000,1500.0000,2000.0000
170983.4140,2.0000,2000.0000,1000.0000,1524.0000,-6.0000,-164.0000,53.0000,2037.0000,-505.0000,4575.0000,0.9204,0.3340,-0.0714,-0.1902,130.7800,-84.9800,-107.7200,8.3300,7.7700,1.4500,0.0000,0.0000,-0.0000,1926.0000,1051.0000,1500.0000,2000.0000
171000.0390,2.0000,2000.0000,1000.0000,1536.0000,24.0000,-165.0000,40.0000,1953.0000,-301.0000,5508.0000,0.9191,0.3302,-0.0961,-0.1921,130.9600,-84.8100,-107.6700,8.3500,8.1400,1.4200,0.0000,0.0000,-0.0000,1916.0000,1049.0000,1500.0000,2000.0000
171017.1440,2.0000,2000.0000,1000.0000,1536.0000,39.0000,-155.0000,31.0000,2114.0000,-55.0000,6519.0000,0.9159,0.3294,-0.1207,-0.1949,131.1500,-84.6200,-107.6200,8.3100,8.5400,1.2700,0.0000,0.0000,-0.0000,1916.0000,1049.0000,1500.0000,2000.0000
171033.6040,2.0000,2000.0000,1000.0000,1536.0000,45.0000,-148.0000,21.0000,2151.0000,63.0000,7180.0000,0.9116,0.3303,-0.1434,-0.1984,131.3500,-84.4100,-107.5700,8.2100,8.9900,1.0100,0.0000,0.0000,-0.0000,1916.0000,1049.0000,1500.0000,2000.0000
171050.3170,2.0000,2000.0000,1000.0000,1536.0000,46.0000,-138.0000,10.0000,2030.0000,78.0000,7488.0000,0.9065,0.3317,-0.1648,-0.2026,131.3500,-84.4100,-107.5700,8.2100,8.9900,1.0100,0.0000,0.0000,-0.0000,1916.0000,1049.0000,1500.0000,2000.0000
171067.1490,2.0000,2000.0000,1000.0000,1536.0000,47.0000,-122.0000,-3.0000,2156.0000,64.0000,7907.0000,0.9010,0.3335,-0.1839,-0.2077,131.5300,-84.2100,-107.5200,8.0500,9.4100,0.7100,0.0000,0.0000,-0.0000,1916.0000,1049.0000,1500.0000,2000.0000
171083.9730,2.0000,2000.0000,1000.0000,1536.0000,49.0000,-109.0000,-15.0000,1958.0000,149.0000,7657.0000,0.8951,0.3365,-0.2001,-0.2135,131.7100,-83.9900,-107.4700,7.8400,9.8300,0.3600,0.0000,0.0000,-0.0000,1916.0000,1049.0000,1500.0000,2000.0000
171100.9340,2.0000,2000.0000,1000.0000,1577.0000,52.0000,-90.0000,-29.0000,1704.0000,107.0000,7379.0000,0.8887,0.3405,-0.2139,-0.2202,131.8800,-83.7800,-107.4300,7.6000,10.1900,0.0300,0.0000,0.0000,-0.0000,1878.0000,1045.0000,1500.0000,2000.0000
171118.2140,2.0000,2000.0000,1000.0000,1578.0000,51.0000,-72.0000,-39.0000,1667.0000,-28.0000,7196.0000,0.8821,0.3457,-0.2249,-0.2276,132.0500,-83.5500,-107.4000,7.3900,10.5600,-0.2500,0.0000,0.0000,-0.0000,1878.0000,1045.0000,1500.0000,2000.0000
171135.2570,2.0000,2000.0000,1000.0000,1578.0000,50.0000,-61.0000,-52.0000,1552.0000,90.0000,6635.0000,0.8757,0.3513,-0.2329,-0.2354,132.2300,-83.3100,-107.3700,7.2000,10.9200,-0.5100,0.0000,0.0000,-0.0000,1878.0000,1045.0000,1500.0000,2000.0000
171151.8090,2.0000,2000.0000,1000.0000,1578.0000,50.0000,-52.0000,-62.0000,1891.0000,144.0000,6310.0000,0.8692,0.3575,-0.2390,-0.2440,132.2300,-83.3100,-107.3700,7.2000,10.9200,-0.5100,0.0000,0.0000,-0.0000,1878.0000,1045.0000,1500.0000,2000.0000
171168.5770,2.0000,2000.0000,1000.0000,1578.0000,52.0000,-57.0000,-72.0000,1955.0000,5.0000,6015.0000,0.8621,0.3644,-0.2442,-0.2537,132.3900,-83.0700,-107.3400,7.0500,11.2300,-0.7300,0.0000,0.0000,-0.0000,1878.0000,1045.0000,1500.0000,2000.0000
171185.4320,2.0000,2000.0000,1000.0000,1578.0000,56.0000,-55.0000,-81.0000,1832.0000,-165.0000,5634.0000,0.8543,0.3716,-0.2492,-0.2646,132.5500,-82.8300,-107.3200,6.9300,11.5100,-0.9200,0.0000,0.0000,-0.0000,1878.0000,1045.0000,1500.0000,2000.0000
171201.9850,2.0000,1998.0000,1200.0000,2000.0000,60.0000,-60.0000,-88.0000,1588.0000,-163.0000,5191.0000,0.8458,0.3795,-0.2539,-0.2760,132.7000,-82.6000,-107.3100,6.8000,11.7600,-1.0600,0.0000,0.0000,-0.0000,1352.0000,1054.0000,1500.0000,1999.0000
171218.7570,2.0000,1998.0000,1201.0000,2000.0000,65.0000,-61.0000,-90.0000,1486.0000,-151.0000,4942.0000,0.8362,0.3881,-0.2591,-0.2881,132.8600,-82.3400,-107.2900,6.6500,11.9900,-1.1300,0.0000,0.0000,-0.0000,1352.0000,1054.0000,1500.0000,1999.0000
171235.3460,2.0000,1998.0000,1201.0000,2000.0000,52.0000,-72.0000,-88.0000,1675.0000,-321.0000,4975.0000,0.8265,0.3959,-0.2645,-0.3003,132.8600,-82.3400,-107.2900,6.6500,11.9900,-1.1300,0.0000,0.0000,-0.0000,1352.0000,1054.0000,1500.0000,1999.0000
171252.4220,2.0000,1998.0000,1201.0000,2000.0000,29.0000,-86.0000,-80.0000,1635.0000,-388.0000,4954.0000,0.8171,0.4005,-0.2712,-0.3138,133.0200,-82.0700,-107.2800,6.5000,12.2400,-1.1700,0.0000,0.0000,-0.0000,1352.0000,1054.0000,1500.0000,1999.0000
171268.9020,2.0000,1998.0000,1201.0000,2000.0000,-6.0000,-108.0000,-68.0000,1468.0000,-665.0000,5158.0000,0.8092,0.4001,-0.2788,-0.3278,133.1700,-81.8100,-107.2600,6.3300,12.4700,-1.2000,0.0000,0.0000,-0.0000,1352.0000,1054.0000,1500.0000,1999.0000
171285.4980,2.0000,1998.0000,1201.0000,2000.0000,-26.0000,-120.0000,-57.0000,1569.0000,-677.0000,5622.0000,0.8025,0.3951,-0.2876,-0.3423,133.3100,-81.5600,-107.2500,6.1200,12.6700,-1.1900,0.0000,0.0000,-0.0000,1352.0000,1054.0000,1500.0000,1999.0000
171302.1250,2.0000,1998.0000,1181.0000,2000.0000,-31.0000,-132.0000,-45.0000,1622.0000,-753.0000,6145.0000,0.7964,0.3875,-0.2978,-0.3564,133.4400,-81.3100,-107.2300,5.8800,12.8700,-1.2000,0.0000,0.0000,-0.0000,1375.0000,1054.0000,1500.0000,1999.0000
171319.1000,2.0000,1998.0000,1178.0000,2000.0000,-32.0000,-144.0000,-34.0000,1890.0000,-680.0000,6783.0000,0.7898,0.3781,-0.3102,-0.3703,133.5800,-81.0300,-107.2100,5.5600,13.1500,-1.2300,0.0000,0.0000,-0.0000,1375.0000,1054.0000,1500.0000,1999.0000
171336.1800,2.0000,1998.0000,1178.0000,2000.0000,-35.0000,-149.0000,-24.0000,2053.0000,-619.0000,7417.0000,0.7833,0.3672,-0.3237,-0.3832,133.5800,-81.0300,-107.2100,5.5600,13.1500,-1.2300,0.0000,0.0000,-0.0000,1375.0000,1054.0000,1500.0000,1999.0000
171353.0370,2.0000,1998.0000,1178.0000,2000.0000,-42.0000,-152.0000,-13.0000,2125.0000,-843.0000,7977.0000,0.7771,0.3551,-0.3376,-0.3950,133.7100,-80.7500,-107.1900,5.2000,13.4700,-1.3200,0.0000,0.0000,-0.0000,1375.0000,1054.0000,1500.0000,1999.0000
171369.6940,2.0000,1998.0000,1178.0000,2000.0000,-53.0000,-146.0000,-5.0000,1906.0000,-660.0000,8208.0000,0.7716,0.3417,-0.3511,-0.4056,133.8300,-80.4700,-107.1700,4.7800,13.7500,-1.4500,0.0000,0.0000,-0.0000,1375.0000,1054.0000,1500.0000,1999.0000
171386.2420,2.0000,1998.0000,1178.0000,2000.0000,-62.0000,-142.0000,3.0000,1891.0000,-253.0000,8364.0000,0.7672,0.3269,-0.3635,-0.4152,133.9400,-80.1900,-107.1500,4.3300,13.9700,-1.6200,0.0000,0.0000,-0.0000,1375.0000,1054.0000,1500.0000,1999.0000
171403.0340,2.0000,1998.0000,1000.0000,1837.0000,-62.0000,-137.0000,6.0000,2127.0000,-346.0000,9157.0000,0.7632,0.3112,-0.3753,-0.4240,134.0300,-79.9200,-107.1300,3.8600,14.1200,-1.8400,0.0000,0.0000,-0.0000,1614.0000,1051.0000,1500.0000,1999.0000
171419.7280,2.0000,1998.0000,1000.0000,1837.0000,-52.0000,-121.0000,9.0000,2020.0000,-443.0000,9217.0000,0.7593,0.2966,-0.3862,-0.4317,134.1300,-79.6200,-107.1300,3.3200,14.3800,-2.1100,0.0000,0.0000,-0.0000,1614.0000,1051.0000,1500.0000,1999.0000
171436.7720,2.0000,1998.0000,1000.0000,1837.0000,-40.0000,-106.0000,9.0000,1843.0000,-402.0000,8933.0000,0.7555,0.2838,-0.3962,-0.4378,134.1300,-79.6200,-107.1300,3.3200,14.3800,-2.1100,0.0000,0.0000,-0.0000,1614.0000,1051.0000,1500.0000,1999.0000
171453.7640,2.0000,1998.0000,1000.0000,1837.0000,-29.0000,-79.0000,4.0000,1597.0000,-221.0000,8085.0000,0.7521,0.2737,-0.4045,-0.4426,134.2200,-79.3100,-107.1300,2.7700,14.6100,-2.3800,0.0000,0.0000,-0.0000,1614.0000,1051.0000,1500.0000,1999.0000
171470.5630,2.0000,1998.0000,1000.0000,1837.0000,-15.0000,-54.0000,1.0000,1367.0000,-40.0000,7116.0000,0.7494,0.2671,-0.4103,-0.4458,134.2900,-79.0100,-107.1300,2.3200,14.7500,-2.6200,0.0000,0.0000,-0.0000,1614.0000,1051.0000,1500.0000,1999.0000
171487.6280,2.0000,1998.0000,1000.0000,1891.0000,-8.0000,-41.0000,-3.0000,1365.0000,-139.0000,6415.0000,0.7471,0.2632,-0.4146,-0.4479,134.3500,-78.7200,-107.1400,1.9800,14.8200,-2.8200,0.0000,0.0000,-0.0000,1560.0000,1050.0000,1500.0000,1999.0000
171504.5570,2.0000,1998.0000,1000.0000,1892.0000,-8.0000,-40.0000,-8.0000,1446.0000,-313.0000,5913.0000,0.7447,0.2604,-0.4182,-0.4502,134.4000,-78.4400,-107.1600,1.7100,14.8700,-2.9700,0.0000,0.0000,-0.0000,1560.0000,1050.0000,1500.0000,1999.0000
171521.4750,2.0000,1998.0000,1000.0000,1892.0000,-5.0000,-38.0000,-14.0000,1721.0000,-352.0000,5573.0000,0.7419,0.2577,-0.4216,-0.4532,134.4600,-78.1200,-107.1800,1.3800,15.0400,-3.0900,0.0000,0.0000,-0.0000,1560.0000,1050.0000,1500.0000,1999.0000
171538.3580,2.0000,1998.0000,1000.0000,1892.0000,-5.0000,-50.0000,-22.0000,1712.0000,-47.0000,4904.0000,0.7383,0.2555,-0.4251,-0.4571,134.4600,-78.1200,-107.1800,1.3800,15.0400,-3.0900,0.0000,0.0000,-0.0000,1560.0000,1050.0000,1500.0000,1999.0000
171555.0570,2.0000,1998.0000,1000.0000,1892.0000,-15.0000,-71.0000,-30.0000,1483.0000,8.0000,4510.0000,0.7331,0.2521,-0.4298,-0.4629,134.5000,-77.8000,-107.2000,1.0800,15.2300,-3.2100,0.0000,0.0000,-0.0000,1560.0000,1050.0000,1500.0000,1999.0000
171571.6960,2.0000,1998.0000,1000.0000,1892.0000,-16.0000,-91.0000,-39.0000,1225.0000,44.0000,4202.0000,0.7263,0.2472,-0.4360,-0.4703,134.5500,-77.4800,-107.2300,0.8600,15.3600,-3.2900,0.0000,0.0000,-0.0000,1560.0000,1050.0000,1500.0000,1999.0000
171588.4200,2.0000,1998.0000,1000.0000,1893.0000,-18.0000,-105.0000,-48.0000,1276.0000,106.0000,4484.0000,0.7178,0.2415,-0.4435,-0.4793,134.5900,-77.1800,-107.2600,0.6600,15.4500,-3.3500,0.0000,0.0000,-0.0000,1559.0000,1050.0000,1500.0000,1999.0000
171605.2690,2.0000,1998.0000,1000.0000,1893.0000,-16.0000,-131.0000,-55.0000,1253.0000,-161.0000,5260.0000,0.7072,0.2350,-0.4528,-0.4896,134.6200,-76.8800,-107.2900,0.4500,15.5000,-3.4100,0.0000,0.0000,-0.0000,1559.0000,1050.0000,1500.0000,1999.0000
171622.2600,2.0000,1998.0000,1000.0000,1893.0000,-14.0000,-143.0000,-60.0000,1574.0000,-108.0000,5939.0000,0.6941,0.2275,-0.4640,-0.5011,134.6500,-76.5400,-107.3300,0.0600,15.6700,-3.5000,0.0000,0.0000,-0.0000,1559.0000,1050.0000,1500.0000,1999.0000
171639.3740,2.0000,1998.0000,1000.0000,1893.0000,-14.0000,-153.0000,-65.0000,1769.0000,-152.0000,6664.0000,0.6794,0.2192,-0.4761,-0.5135,134.6500,-76.5400,-107.3300,0.0600,15.6700,-3.5000,0.0000,0.0000,-0.0000,1559.0000,1050.0000,1500.0000,1999.0000
171656.4460,2.0000,1998.0000,1000.0000,1893.0000,-13.0000,-165.0000,-67.0000,1660.0000,-382.0000,7405.0000,0.6636,0.2104,-0.4887,-0.5258,134.6700,-76.2000,-107.3600,-0.4100,15.8600,-3.6200,0.0000,0.0000,-0.0000,1559.0000,1050.0000,1500.0000,1999.0000
171673.0100,2.0000,1998.0000,1000.0000,1893.0000,-19.0000,-161.0000,-65.0000,1694.0000,-441.0000,7966.0000,0.6478,0.2013,-0.5007,-0.5377,134.6800,-75.8600,-107.4100,-0.9600,15.9800,-3.7600,0.0000,0.0000,-0.0000,1559.0000,1050.0000,1500.0000,1999.0000
171689.8600,2.0000,1998.0000,1000.0000,1839.0000,-24.0000,-155.0000,-61.0000,1821.0000,-411.0000,8560.0000,0.6319,0.1918,-0.5119,-0.5494,134.6800,-75.5300,-107.4500,-1.5300,16.0300,-3.9000,0.0000,0.0000,-0.0000,1615.0000,1051.0000,1500.0000,1999.0000
171706.8010,2.0000,1998.0000,1000.0000,1836.0000,-22.0000,-143.0000,-60.0000,1929.0000,-622.0000,9170.0000,0.6166,0.1824,-0.5219,-0.5605,134.6600,-75.1700,-107.5000,-2.1900,16.1200,-4.0500,0.0000,0.0000,-0.0000,1615.0000,1051.0000,1500.0000,1999.0000
171723.3740,2.0000,1998.0000,1000.0000,1836.0000,-22.0000,-121.0000,-57.0000,1911.0000,-658.0000,9250.0000,0.6027,0.1747,-0.5301,-0.5703,134.6300,-74.8100,-107.5500,-2.8900,16.1800,-4.2000,0.0000,0.0000,-0.0000,1615.0000,1051.0000,1500.0000,1999.0000
171740.2750,2.0000,1998.0000,1000.0000,1836.0000,-17.0000,-98.0000,-52.0000,1770.0000,-672.0000,8763.0000,0.5905,0.1684,-0.5364,-0.5791,134.6300,-74.8100,-107.5500,-2.8900,16.1800,-4.2000,0.0000,0.0000,-0.0000,1615.0000,1051.0000,1500.0000,1999.0000
171757.3570,2.0000,1998.0000,1000.0000,1836.0000,-2.0000,-77.0000,-47.0000,1561.0000,-656.0000,7749.0000,0.5799,0.1642,-0.5416,-0.5860,134.5900,-74.4500,-107.6000,-3.5300,16.1700,-4.3300,0.0000,0.0000,-0.0000,1615.0000,1051.0000,1500.0000,1999.0000
171773.8730,2.0000,1998.0000,1000.0000,1836.0000,5.0000,-64.0000,-40.0000,1576.0000,-965.0000,6819.0000,0.5710,0.1622,-0.5467,-0.5905,134.5300,-74.1100,-107.6600,-4.0500,16.1500,-4.4200,0.0000,0.0000,-0.0000,1615.0000,1051.0000,1500.0000,1999.0000
171790.4990,2.0000,1998.0000,1000.0000,1836.0000,4.0000,-51.0000,-35.0000,1581.0000,-816.0000,6636.0000,0.5634,0.1613,-0.5510,-0.5941,134.4700,-73.7800,-107.7200,-4.4700,16.1600,-4.4300,0.0000,0.0000,-0.0000,1615.0000,1051.0000,1500.0000,1999.0000
171807.0970,2.0000,1998.0000,1000.0000,1788.0000,-10.0000,-43.0000,-28.0000,1578.0000,-602.0000,6217.0000,0.5576,0.1599,-0.5536,-0.5975,134.3900,-73.4000,-107.7900,-4.9800,16.2200,-4.4300,0.0000,0.0000,-0.0000,1663.0000,1051.0000,1500.0000,1999.0000
171823.9780,2.0000,1998.0000,1000.0000,1788.0000,-17.0000,-38.0000,-25.0000,1537.0000,-615.0000,5874.0000,0.5528,0.1579,-0.5550,-0.6012,134.3100,-73.0300,-107.8500,-5.4500,16.2900,-4.4400,0.0000,0.0000,-0.0000,1663.0000,1051.0000,1500.0000,1999.0000
171840.6670,2.0000,1998.0000,1000.0000,1788.0000,-12.0000,-41.0000,-23.0000,1494.0000,-561.0000,5319.0000,0.5483,0.1557,-0.5561,-0.6049,134.3100,-73.0300,-107.8500,-5.4500,16.2900,-4.4400,0.0000,0.0000,-0.0000,1663.0000,1051.0000,1500.0000,1999.0000
171857.2280,2.0000,1998.0000,1000.0000,1788.0000,-2.0000,-50.0000,-23.0000,1311.0000,-518.0000,4815.0000,0.5433,0.1536,-0.5582,-0.6080,134.2100,-72.6700,-107.9100,-5.8300,16.3600,-4.4300,0.0000,0.0000,-0.0000,1663.0000,1051.0000,1500.0000,1999.0000
171874.0230,2.0000,1998.0000,1000.0000,1788.0000,-2.0000,-57.0000,-22.0000,1535.0000,-151.0000,4505.0000,0.5371,0.1508,-0.5618,-0.6109,134.1200,-72.3100,-107.9700,-6.1300,16.4300,-4.3800,0.0000,0.0000,-0.0000,1663.0000,1051.0000,1500.0000,1999.0000
171890.6070,2.0000,1998.0000,1000.0000,1787.0000,-3.0000,-75.0000,-22.0000,1540.0000,-232.0000,4349.0000,0.5299,0.1469,-0.5665,-0.6138,134.0200,-71.9700,-108.0300,-6.3600,16.5000,-4.3400,0.0000,0.0000,-0.0000,1665.0000,1051.0000,1500.0000,1999.0000
171907.4650,2.0000,1998.0000,1000.0000,1786.0000,-4.0000,-92.0000,-22.0000,1599.0000,-418.0000,4811.0000,0.5211,0.1414,-0.5722,-0.6173,133.9000,-71.5800,-108.0900,-6.7900,16.5700,-4.3100,0.0000,0.0000,-0.0000,1665.0000,1051.0000,1500.0000,1999.0000
171924.5350,2.0000,1998.0000,1000.0000,1786.0000,-2.0000,-102.0000,-23.0000,1461.0000,-526.0000,5293.0000,0.5109,0.1343,-0.5790,-0.6211,133.9000,-71.5800,-108.0900,-6.7900,16.5700,-4.3100,0.0000,0.0000,-0.0000,1665.0000,1051.0000,1500.0000,1999.0000
171941.1950,2.0000,1998.0000,1000.0000,1786.0000,-3.0000,-123.0000,-23.0000,1696.0000,-519.0000,6195.0000,0.4998,0.1262,-0.5865,-0.6248,133.7800,-71.2000,-108.1500,-7.2600,16.5800,-4.2700,0.0000,0.0000,-0.0000,1665.0000,1051.0000,1500.0000,1999.0000
171957.9790,2.0000,1998.0000,1000.0000,1786.0000,0.0000,-127.0000,-25.0000,1801.0000,-176.0000,6680.0000,0.4872,0.1170,-0.5949,-0.6286,133.6500,-70.8200,-108.2000,-7.7700,16.5200,-4.2500,0.0000,0.0000,-0.0000,1665.0000,1051.0000,1500.0000,1999.0000
171974.6220,2.0000,1998.0000,1000.0000,1786.0000,14.0000,-140.0000,-28.0000,1844.0000,-153.0000,7148.0000,0.4734,0.1081,-0.6044,-0.6316,133.5100,-70.4700,-108.2600,-8.2700,16.3900,-4.2700,0.0000,0.0000,-0.0000,1665.0000,1051.0000,1500.0000,1999.0000
171991.4240,2.0000,1998.0000,1000.0000,1786.0000,14.0000,-140.0000,-31.0000,1941.0000,-255.0000,7568.0000,0.4584,0.0993,-0.6148,-0.6340,133.3600,-70.1300,-108.3300,-8.7600,16.2000,-4.3000,0.0000,0.0000,-0.0000,1665.0000,1051.0000,1500.0000,1999.0000
172008.2650,2.0000,1998.0000,1000.0000,1786.0000,9.0000,-133.0000,-36.0000,1979.0000,-362.0000,8180.0000,0.4431,0.0907,-0.6245,-0.6368,133.1800,-69.7400,-108.3900,-9.4200,15.9800,-4.3300,0.0000,0.0000,-0.0000,1665.0000,1051.0000,1500.0000,1999.0000
172025.5360,2.0000,1998.0000,1000.0000,1786.0000,-1.0000,-120.0000,-36.0000,1906.0000,-194.0000,8645.0000,0.4281,0.0827,-0.6325,-0.6401,133.1800,-69.7400,-108.3900,-9.4200,15.9800,-4.3300,0.0000,0.0000,-0.0000,1665.0000,1051.0000,1500.0000,1999.0000
172042.2730,2.0000,1998.0000,1000.0000,1786.0000,-7.0000,-107.0000,-36.0000,1754.0000,-236.0000,8425.0000,0.4147,0.0757,-0.6388,-0.6436,132.9900,-69.3800,-108.4600,-10.0700,15.6800,-4.3600,0.0000,0.0000,-0.0000,1665.0000,1051.0000,1500.0000,1999.0000
172058.9420,2.0000,1998.0000,1000.0000,1786.0000,-8.0000,-90.0000,-35.0000,1590.0000,-138.0000,7804.0000,0.4029,0.0700,-0.6434,-0.6471,132.8000,-69.0300,-108.5300,-10.6500,15.3500,-4.3700,0.0000,0.0000,-0.0000,1665.0000,1051.0000,1500.0000,1999.0000
172075.6610,2.0000,1998.0000,1000.0000,1786.0000,-13.0000,-69.0000,-37.0000,1547.0000,-145.0000,7151.0000,0.3928,0.0659,-0.6464,-0.6507,132.6000,-68.7000,-108.6000,-11.1100,15.0500,-4.3600,0.0000,0.0000,-0.0000,1665.0000,1051.0000,1500.0000,1999.0000
172092.2180,2.0000,1998.0000,1000.0000,1786.0000,-6.0000,-50.0000,-39.0000,1521.0000,-266.0000,6409.0000,0.3846,0.0640,-0.6482,-0.6541,132.4000,-68.3900,-108.6700,-11.4800,14.8100,-4.3400,0.0000,0.0000,-0.0000,1665.0000,1051.0000,1500.0000,1999.0000
172109.2510,2.0000,1998.0000,1000.0000,1786.0000,6.0000,-31.0000,-40.0000,1420.0000,-373.0000,5640.0000,0.3772,0.0644,-0.6502,-0.6564,132.1600,-68.0400,-108.7500,-11.9400,14.5900,-4.2800,0.0000,0.0000,-0.0000,1665.0000,1051.0000,1500.0000,1999.0000
172125.8780,2.0000,1998.0000,1000.0000,1786.0000,15.0000,-21.0000,-38.0000,1666.0000,-166.0000,4770.0000,0.3715,0.0667,-0.6521,-0.6576,132.1600,-68.0400,-108.7500,-11.9400,14.5900,-4.2800,0.0000,0.0000,-0.0000,1665.0000,1051.0000,1500.0000,1999.0000
172142.4640,2.0000,1998.0000,1000.0000,1786.0000,20.0000,-27.0000,-40.0000,1821.0000,-251.0000,4321.0000,0.3660,0.0697,-0.6544,-0.6580,131.9200,-67.7000,-108.8200,-12.3200,14.4500,-4.2200,0.0000,0.0000,-0.0000,1665.0000,1051.0000,1500.0000,1999.0000
172159.1140,2.0000,1998.0000,1000.0000,1786.0000,24.0000,-39.0000,-42.0000,1550.0000,-484.0000,3719.0000,0.3591,0.0721,-0.6576,-0.6583,131.6800,-67.3800,-108.9000,-12.6400,14.3800,-4.1600,0.0000,0.0000,-0.0000,1665.0000,1051.0000,1500.0000,1999.0000
172175.5730,2.0000,1998.0000,1000.0000,1786.0000,28.0000,-53.0000,-46.0000,1370.0000,-359.0000,3032.0000,0.3509,0.0738,-0.6618,-0.6583,131.4500,-67.0700,-108.9700,-12.8800,14.3400,-4.0400,0.0000,0.0000,-0.0000,1665.0000,1051.0000,1500.0000,1999.0000
172192.2160,2.0000,1998.0000,1000.0000,1786.0000,30.0000,-82.0000,-47.0000,1225.0000,-318.0000,2758.0000,0.3401,0.0737,-0.6674,-0.6584,131.2200,-66.7600,-109.0400,-13.0600,14.3300,-3.9000,0.0000,0.0000,-0.0000,1665.0000,1051.0000,1500.0000,1999.0000
172208.8880,2.0000,1998.0000,1000.0000,1786.0000,34.0000,-105.0000,-50.0000,1311.0000,-298.0000,2803.0000,0.3263,0.0714,-0.6745,-0.6584,131.2200,-66.7600,-109.0400,-13.0600,14.3300,-3.9000,0.0000,0.0000,-0.0000,1665.0000,1051.0000,1500.0000,1999.0000
172225.6220,2.0000,1998.0000,1000.0000,1786.0000,28.0000,-135.0000,-53.0000,1273.0000,-221.0000,2856.0000,0.3095,0.0668,-0.6825,-0.6587,130.9400,-66.4200,-109.1200,-13.4100,14.2600,-3.7600,0.0000,0.0000,-0.0000,1665.0000,1051.0000,1500.0000,1999.0000
172242.7390,2.0000,1998.0000,1000.0000,1786.0000,32.0000,-158.0000,-55.0000,1531.0000,-273.0000,3662.0000,0.2894,0.0598,-0.6913,-0.6594,130.6700,-66.0900,-109.1900,-13.7200,14.1700,-3.6100,0.0000,0.0000,-0.0000,1665.0000,1051.0000,1500.0000,1999.0000
172259.4430,2.0000,1998.0000,1000.0000,1786.0000,41.0000,-176.0000,-56.0000,1749.0000,-359.0000,4901.0000,0.2670,0.0511,-0.7012,-0.6591,130.4000,-65.7800,-109.2500,-14.0400,14.0200,-3.4500,0.0000,0.0000,-0.0000,1665.0000,1051.0000,1500.0000,1999.0000
172276.3560,2.0000,1998.0000,1000.0000,1786.0000,40.0000,-191.0000,-55.0000,1898.0000,-430.0000,6190.0000,0.2430,0.0414,-0.7118,-0.6577,130.1400,-65.4800,-109.3200,-14.4000,13.7500,-3.2900,0.0000,0.0000,-0.0000,1665.0000,1051.0000,1500.0000,1999.0000
172293.0940,2.0000,1998.0000,1000.0000,1787.0000,30.0000,-195.0000,-54.0000,1973.0000,-407.0000,7190.0000,0.2180,0.0306,-0.7214,-0.6566,129.8700,-65.1900,-109.3800,-14.7900,13.3400,-3.1100,0.0000,0.0000,-0.0000,1664.0000,1051.0000,1500.0000,1999.0000
172310.0080,2.0000,1998.0000,1000.0000,1787.0000,17.0000,-192.0000,-53.0000,2001.0000,-450.0000,7925.0000,0.1924,0.0188,-0.7294,-0.6563,129.8700,-65.1900,-109.3800,-14.7900,13.3400,-3.1100,0.0000,0.0000,-0.0000,1664.0000,1051.0000,1500.0000,1999.0000
172327.2990,2.0000,1998.0000,1000.0000,1787.0000,3.0000,-188.0000,-51.0000,2100.0000,-417.0000,8182.0000,0.1672,0.0068,-0.7353,-0.6567,129.5500,-64.8800,-109.4400,-15.3100,12.7900,-2.8900,0.0000,0.0000,-0.0000,1664.0000,1051.0000,1500.0000,1999.0000
172343.7820,2.0000,1998.0000,1000.0000,1787.0000,-10.0000,-176.0000,-52.0000,2104.0000,-447.0000,8630.0000,0.1438,-0.0042,-0.7391,-0.6581,129.2300,-64.5900,-109.5000,-15.7600,12.2100,-2.6600,0.0000,0.0000,-0.0000,1664.0000,1051.0000,1500.0000,1999.0000
172360.5770,2.0000,1998.0000,1000.0000,1787.0000,-19.0000,-158.0000,-51.0000,1967.0000,-415.0000,8577.0000,0.1212,-0.0142,-0.7411,-0.6602,128.9100,-64.3300,-109.5500,-16.1300,11.5800,-2.4100,0.0000,0.0000,-0.0000,1664.0000,1051.0000,1500.0000,1999.0000
172377.4250,2.0000,1998.0000,1000.0000,1787.0000,-19.0000,-143.0000,-51.0000,1936.0000,-408.0000,8484.0000,0.1008,-0.0225,-0.7418,-0.6626,128.6000,-64.0800,-109.6000,-16.4200,10.9700,-2.1600,0.0000,0.0000,-0.0000,1664.0000,1051.0000,1500.0000,1999.0000
172394.4360,2.0000,1998.0000,1000.0000,1787.0000,-23.0000,-121.0000,-49.0000,1819.0000,-420.0000,8272.0000,0.0820,-0.0294,-0.7417,-0.6651,128.2900,-63.8600,-109.6400,-16.6500,10.3900,-1.9000,0.0000,0.0000,-0.0000,1665.0000,1051.0000,1500.0000,1999.0000
172411.4130,2.0000,1998.0000,1000.0000,1786.0000,-16.0000,-99.0000,-46.0000,1671.0000,-666.0000,8342.0000,0.0658,-0.0343,-0.7412,-0.6672,128.2900,-63.8600,-109.6400,-16.6500,10.3900,-1.9000,0.0000,0.0000,-0.0000,1665.0000,1051.0000,1500.0000,1999.0000
172428.6640,2.0000,1998.0000,1000.0000,1786.0000,-5.0000,-67.0000,-41.0000,1773.0000,-580.0000,7828.0000,0.0532,-0.0368,-0.7409,-0.6685,127.9300,-63.6100,-109.6800,-16.9300,9.8000,-1.6200,0.0000,0.0000,-0.0000,1665.0000,1051.0000,1500.0000,1999.0000
172445.3950,2.0000,1998.0000,1000.0000,1786.0000,-8.0000,-45.0000,-37.0000,1541.0000,-339.0000,7043.0000,0.0443,-0.0372,-0.7408,-0.6693,127.5800,-63.3900,-109.7200,-17.1600,9.2700,-1.3400,0.0000,0.0000,-0.0000,1665.0000,1051.0000,1500.0000,1999.0000
172462.3690,2.0000,1998.0000,1000.0000,1786.0000,-8.0000,-26.0000,-35.0000,1428.0000,-357.0000,6225.0000,0.0379,-0.0355,-0.7404,-0.6701,127.2300,-63.1800,-109.7500,-17.3200,8.8300,-1.0900,0.0000,0.0000,-0.0000,1665.0000,1051.0000,1500.0000,1999.0000
172479.1570,2.0000,1998.0000,1000.0000,1786.0000,2.0000,-8.0000,-31.0000,1360.0000,-452.0000,5391.0000,0.0335,-0.0328,-0.7404,-0.6706,126.9000,-62.9900,-109.7800,-17.4500,8.5100,-0.8600,0.0000,0.0000,-0.0000,1665.0000,1051.0000,1500.0000,1999.0000
172496.2170,2.0000,1998.0000,1000.0000,1786.0000,12.0000,-2.0000,-31.0000,1401.0000,-197.0000,4434.0000,0.0305,-0.0290,-0.7413,-0.6699,126.5600,-62.8000,-109.8100,-17.5700,8.2800,-0.6400,0.0000,0.0000,-0.0000,1665.0000,1051.0000,1500.0000,1999.0000
172512.9290,2.0000,1998.0000,1000.0000,1786.0000,20.0000,-5.0000,-35.0000,1221.0000,-241.0000,3272.0000,0.0279,-0.0247,-0.7430,-0.6683,126.5600,-62.8000,-109.8100,-17.5700,8.2800,-0.6400,0.0000,0.0000,-0.0000,1665.0000,1051.0000,1500.0000,1999.0000
172529.5700,2.0000,1998.0000,1000.0000,1786.0000,20.0000,-22.0000,-39.0000,1207.0000,-60.0000,2117.0000,0.0237,-0.0211,-0.7452,-0.6660,126.1800,-62.5900,-109.8400,-17.7700,8.1000,-0.4600,0.0000,0.0000,-0.0000,1665.0000,1051.0000,1500.0000,1999.0000
172546.6260,2.0000,1998.0000,1000.0000,1786.0000,12.0000,-49.0000,-43.0000,1336.0000,1.0000,1490.0000,0.0161,-0.0195,-0.7470,-0.6643,125.8100,-62.4000,-109.8700,-17.9200,8.0700,-0.2800,0.0000,0.0000,-0.0000,1665.0000,1051.0000,1500.0000,1999.0000
172563.5580,2.0000,1998.0000,1000.0000,1786.0000,13.0000,-89.0000,-50.0000,1374.0000,-198.0000,1489.0000,0.0046,-0.0204,-0.7482,-0.6631,125.4500,-62.2100,-109.9000,-18.0700,8.1100,-0.1200,0.0000,0.0000,-0.0000,1665.0000,1051.0000,1500.0000,1999.0000
172580.4230,2.0000,1998.0000,1000.0000,1786.0000,11.0000,-113.0000,-53.0000,1393.0000,-340.0000,2102.0000,-0.0110,-0.0240,-0.7495,-0.6615,125.1000,-62.0200,-109.9200,-18.1900,8.1500,0.0600,0.0000,0.0000,-0.0000,1665.0000,1051.0000,1500.0000,1999.0000
172597.1070,2.0000,1998.0000,1000.0000,1786.0000,10.0000,-143.0000,-57.0000,1122.0000,-249.0000,2824.0000,-0.0297,-0.0295,-0.7504,-0.6596,124.7400,-61.8400,-109.9400,-18.3000,8.0800,0.2800,0.0000,0.0000,-0.0000,1665.0000,1051.0000,1500.0000,1999.0000
172613.9600,2.0000,1998.0000,1000.0000,1786.0000,9.0000,-168.0000,-61.0000,1091.0000,-345.0000,3843.0000,-0.0518,-0.0372,-0.7507,-0.6575,124.7400,-61.8400,-109.9400,-18.3000,8.0800,0.2800,0.0000,0.0000,-0.0000,1665.0000,1051.0000,1500.0000,1999.0000
172630.9660,2.0000,1998.0000,1000.0000,1786.0000,10.0000,-188.0000,-62.0000,1380.0000,-460.0000,4969.0000,-0.0770,-0.0471,-0.7503,-0.6550,124.3500,-61.6400,-109.9600,-18.4200,7.8300,0.5100,0.0000,0.0000,-0.0000,1665.0000,1051.0000,1500.0000,1999.0000
172647.6150,2.0000,1998.0000,1000.0000,1786.0000,10.0000,-196.0000,-61.0000,1728.0000,-503.0000,6045.0000,-0.1029,-0.0579,-0.7492,-0.6518,123.9700,-61.4600,-109.9700,-18.4900,7.4700,0.7900,0.0000,0.0000,-0.0000,1665.0000,1051.0000,1500.0000,1999.0000
172664.3950,2.0000,1998.0000,1000.0000,1786.0000,15.0000,-205.0000,-59.0000,1792.0000,-626.0000,7090.0000,-0.1299,-0.0699,-0.7475,-0.6477,123.6000,-61.2900,-109.9800,-18.5200,7.0000,1.0900,0.0000,0.0000,-0.0000,1665.0000,1051.0000,1500.0000,1999.0000
172681.1850,2.0000,1998.0000,1000.0000,1786.0000,16.0000,-202.0000,-55.0000,2041.0000,-559.0000,7956.0000,-0.1563,-0.0820,-0.7455,-0.6428,123.2400,-61.1300,-109.9800,-18.4800,6.4500,1.4300,0.0000,0.0000,-0.0000,1665.0000,1051.0000,1500.0000,1999.0000
172698.1910,2.0000,1998.0000,1000.0000,1786.0000,19.0000,-198.0000,-53.0000,2202.0000,-630.0000,8696.0000,-0.1825,-0.0944,-0.7429,-0.6371,122.9000,-61.0000,-109.9700,-18.3800,5.8400,1.7800,0.0000,0.0000,-0.0000,1665.0000,1051.0000,1500.0000,1999.0000
172715.0280,2.0000,1998.0000,1000.0000,1786.0000,18.0000,-185.0000,-51.0000,2127.0000,-725.0000,9488.0000,-0.2070,-0.1060,-0.7400,-0.6311,122.9000,-61.0000,-109.9700,-18.3800,5.8400,1.7800,0.0000,0.0000,-0.0000,1665.0000,1051.0000,1500.0000,1999.0000
172731.6710,2.0000,1998.0000,1000.0000,1786.0000,10.0000,-166.0000,-49.0000,2001.0000,-699.0000,9724.0000,-0.2295,-0.1162,-0.7365,-0.6255,122.5800,-60.8800,-109.9500,-18.1800,5.2000,2.1500,0.0000,0.0000,-0.0000,1665.0000,1051.0000,1500.0000,1999.0000
172748.6680,2.0000,1998.0000,1000.0000,1786.0000,8.0000,-144.0000,-43.0000,1810.0000,-710.0000,9342.0000,-0.2497,-0.1248,-0.7328,-0.6206,122.2600,-60.7800,-109.9300,-17.8900,4.5500,2.5300,0.0000,0.0000,-0.0000,1665.0000,1051.0000,1500.0000,1999.0000
172765.4720,2.0000,1998.0000,1000.0000,1786.0000,11.0000,-123.0000,-34.0000,1717.0000,-706.0000,8742.0000,-0.2664,-0.1321,-0.7295,-0.6159,121.9600,-60.6900,-109.8900,-17.5700,3.9700,2.8900,0.0000,0.0000,-0.0000,1665.0000,1051.0000,1500.0000,1999.0000
172782.3430,2.0000,1998.0000,1000.0000,1786.0000,7.0000,-104.0000,-29.0000,1465.0000,-555.0000,8089.0000,-0.2801,-0.1379,-0.7267,-0.6119,121.6700,-60.6200,-109.8500,-17.2400,3.5000,3.2300,0.0000,0.0000,-0.0000,1665.0000,1051.0000,1500.0000,1999.0000
172799.3600,2.0000,1998.0000,1000.0000,1786.0000,10.0000,-81.0000,-24.0000,1565.0000,-251.0000,7482.0000,-0.2912,-0.1425,-0.7243,-0.6085,121.4000,-60.5600,-109.8100,-16.9300,3.1400,3.5300,0.0000,0.0000,-0.0000,1665.0000,1051.0000,1500.0000,1999.0000
172816.2030,2.0000,1998.0000,1000.0000,1786.0000,16.0000,-60.0000,-17.0000,1285.0000,-351.0000,7449.0000,-0.2995,-0.1462,-0.7230,-0.6051,121.4000,-60.5600,-109.8100,-16.9300,3.1400,3.5300,0.0000,0.0000,-0.0000,1665.0000,1051.0000,1500.0000,1999.0000
172832.9610,2.0000,1998.0000,1000.0000,1786.0000,16.0000,-46.0000,-13.0000,1182.0000,-460.0000,7211.0000,-0.3055,-0.1492,-0.7224,-0.6021,121.1500,-60.5000,-109.7600,-16.6500,2.8300,3.8100,0.0000,0.0000,-0.0000,1665.0000,1051.0000,1500.0000,1999.0000
172849.9040,2.0000,1998.0000,1000.0000,1786.0000,3.0000,-36.0000,-10.0000,1181.0000,-469.0000,6334.0000,-0.3101,-0.1512,-0.7218,-0.6000,120.9100,-60.4600,-109.7000,-16.3400,2.5800,4.0800,0.0000,0.0000,-0.0000,1665.0000,1051.0000,1500.0000,1999.0000
172866.6750,2.0000,1998.0000,1000.0000,1786.0000,-3.0000,-29.0000,-10.0000,1331.0000,-295.0000,5139.0000,-0.3136,-0.1518,-0.7206,-0.5995,120.6800,-60.4200,-109.6500,-16.0900,2.4200,4.3400,0.0000,0.0000,-0.0000,1665.0000,1051.0000,1500.0000,1999.0000
172883.3200,2.0000,1998.0000,1000.0000,1786.0000,-1.0000,-35.0000,-13.0000,1171.0000,-195.0000,4075.0000,-0.3173,-0.1526,-0.7191,-0.5991,120.4700,-60.3800,-109.5900,-15.9400,2.3900,4.5700,0.0000,0.0000,-0.0000,1665.0000,1051.0000,1500.0000,1999.0000
172900.2550,2.0000,1998.0000,1000.0000,1786.0000,1.0000,-51.0000,-20.0000,1167.0000,-84.0000,3319.0000,-0.3222,-0.1539,-0.7177,-0.5979,120.2800,-60.3500,-109.5300,-15.8600,2.4700,4.7500,0.0000,0.0000,-0.0000,1665.0000,1051.0000,1500.0000,1999.0000
172917.2720,2.0000,2000.0000,1000.0000,1515.0000,3.0000,-72.0000,-27.0000,1299.0000,-95.0000,3152.0000,-0.3302,-0.1563,-0.7156,-0.5954,120.2800,-60.3500,-109.5300,-15.8600,2.4700,4.7500,0.0000,0.0000,-0.0000,1903.0000,1083.0000,1500.0000,2000.0000
172934.1060,2.0000,2000.0000,1000.0000,1515.0000,13.0000,-97.0000,-36.0000,1092.0000,-157.0000,3264.0000,-0.3413,-0.1601,-0.7129,-0.5913,120.1000,-60.3100,-109.4700,-15.8200,2.5900,4.9400,0.0000,0.0000,-0.0000,1903.0000,1083.0000,1500.0000,2000.0000
172950.8230,2.0000,2000.0000,1000.0000,1515.0000,35.0000,-116.0000,-48.0000,1238.0000,-138.0000,3891.0000,-0.3548,-0.1653,-0.7106,-0.5847,119.9400,-60.2800,-109.4200,-15.7600,2.7300,5.1200,0.0000,0.0000,-0.0000,1903.0000,1083.0000,1500.0000,2000.0000
172967.8390,2.0000,2000.0000,1000.0000,1515.0000,58.0000,-128.0000,-62.0000,1358.0000,-116.0000,4557.0000,-0.3705,-0.1717,-0.7097,-0.5740,119.7800,-60.2400,-109.3600,-15.6600,2.8200,5.3200,0.0000,0.0000,-0.0000,1903.0000,1083.0000,1500.0000,2000.0000
172984.5740,2.0000,2000.0000,1000.0000,1515.0000,67.0000,-137.0000,-73.0000,1459.0000,-173.0000,5317.0000,-0.3876,-0.1784,-0.7097,-0.5607,119.6400,-60.2000,-109.2900,-15.5000,2.8500,5.5300,0.0000,0.0000,-0.0000,1903.0000,1083.0000,1500.0000,2000.0000
173001.5540,2.0000,2000.0000,1000.0000,1386.0000,82.0000,-144.0000,-83.0000,1404.0000,-321.0000,5868.0000,-0.4058,-0.1850,-0.7099,-0.5451,119.5000,-60.1700,-109.2300,-15.2800,2.8500,5.7500,0.0000,0.0000,-0.0000,1937.0000,1178.0000,1500.0000,2000.0000
173018.4000,2.0000,2000.0000,1000.0000,1386.0000,87.0000,-148.0000,-90.0000,1426.0000,-270.0000,6435.0000,-0.4249,-0.1918,-0.7103,-0.5274,119.5000,-60.1700,-109.2300,-15.2800,2.8500,5.7500,0.0000,0.0000,-0.0000,1937.0000,1178.0000,1500.0000,2000.0000
173035.4510,2.0000,2000.0000,1000.0000,1386.0000,110.0000,-140.0000,-94.0000,1378.0000,-475.0000,7135.0000,-0.4440,-0.1988,-0.7113,-0.5074,119.3800,-60.1400,-109.1600,-15.0000,2.8400,6.0000,0.0000,0.0000,-0.0000,1937.0000,1178.0000,1500.0000,2000.0000
173052.2950,2.0000,2000.0000,1000.0000,1386.0000,140.0000,-126.0000,-94.0000,1409.0000,-531.0000,7084.0000,-0.4605,-0.2061,-0.7147,-0.4845,119.2700,-60.1000,-109.0900,-14.6400,2.8000,6.2900,0.0000,0.0000,-0.0000,1937.0000,1178.0000,1500.0000,2000.0000
173069.2280,2.0000,2000.0000,1000.0000,1386.0000,171.0000,-120.0000,-90.0000,1463.0000,-851.0000,7264.0000,-0.4747,-0.2146,-0.7200,-0.4586,119.1600,-60.0700,-109.0100,-14.2500,2.8000,6.6100,0.0000,0.0000,-0.0000,1937.0000,1178.0000,1500.0000,2000.0000
173086.3690,2.0000,1998.0000,1646.0000,2000.0000,199.0000,-112.0000,-82.0000,1266.0000,-960.0000,6716.0000,-0.4861,-0.2251,-0.7272,-0.4293,119.0600,-60.0400,-108.9200,-13.8700,2.8300,6.9800,0.0000,0.0000,-0.0000,1063.0000,1210.0000,1500.0000,1999.0000
173103.0520,2.0000,1998.0000,1647.0000,2000.0000,220.0000,-107.0000,-71.0000,1300.0000,-982.0000,6617.0000,-0.4946,-0.2375,-0.7350,-0.3984,118.8800,-60.0100,-108.8200,-13.5900,2.6900,7.4100,0.0000,0.0000,-0.0000,1063.0000,1210.0000,1500.0000,1999.0000
173119.8820,2.0000,1998.0000,1647.0000,2000.0000,205.0000,-110.0000,-54.0000,1219.0000,-1175.0000,6774.0000,-0.5015,-0.2517,-0.7419,-0.3671,118.8800,-60.0100,-108.8200,-13.5900,2.6900,7.4100,0.0000,0.0000,-0.0000,1063.0000,1210.0000,1500.0000,1999.0000
173136.3510,2.0000,1998.0000,1647.0000,2000.0000,144.0000,-116.0000,-32.0000,1336.0000,-1077.0000,6593.0000,-0.5090,-0.2650,-0.7445,-0.3412,118.4500,-60.0000,-108.6900,-13.4800,1.9300,7.8900,0.0000,0.0000,-0.0000,1063.0000,1210.0000,1500.0000,1999.0000
173153.2050,2.0000,1998.0000,1647.0000,2000.0000,58.0000,-123.0000,-5.0000,1422.0000,-1011.0000,6488.0000,-0.5187,-0.2758,-0.7413,-0.3246,118.0500,-59.9900,-108.5600,-13.3600,1.2700,8.3800,0.0000,0.0000,-0.0000,1063.0000,1210.0000,1500.0000,1999.0000
173170.2150,2.0000,1998.0000,1647.0000,2000.0000,-36.0000,-123.0000,22.0000,1459.0000,-963.0000,7123.0000,-0.5311,-0.2825,-0.7320,-0.3197,117.6600,-60.0000,-108.4200,-13.2400,0.7000,8.8800,0.0000,0.0000,-0.0000,1063.0000,1210.0000,1500.0000,1999.0000
173187.0540,2.0000,1998.0000,1647.0000,2000.0000,-118.0000,-112.0000,44.0000,1328.0000,-1099.0000,7986.0000,-0.5450,-0.2846,-0.7179,-0.3267,117.2900,-60.0200,-108.2600,-13.0400,0.1500,9.3700,0.0000,0.0000,-0.0000,1063.0000,1210.0000,1500.0000,1999.0000
173203.8560,2.0000,2000.0000,1000.0000,1387.0000,-184.0000,-97.0000,60.0000,1350.0000,-783.0000,7779.0000,-0.5593,-0.2820,-0.7000,-0.3431,116.9200,-60.0600,-108.1000,-12.7300,-0.4100,9.8200,0.0000,0.0000,-0.0000,1936.0000,1178.0000,1500.0000,2000.0000
173221.0290,2.0000,2000.0000,1000.0000,1387.0000,-232.0000,-86.0000,70.0000,1072.0000,-510.0000,7444.0000,-0.5738,-0.2755,-0.6784,-0.3668,116.9200,-60.0600,-108.1000,-12.7300,-0.4100,9.8200,0.0000,0.0000,-0.0000,1936.0000,1178.0000,1500.0000,2000.0000
173237.9140,2.0000,2000.0000,1000.0000,1387.0000,-239.0000,-79.0000,71.0000,1000.0000,-107.0000,6683.0000,-0.5872,-0.2661,-0.6553,-0.3937,116.5200,-60.1300,-107.9200,-12.3300,-1.1200,10.1900,0.0000,0.0000,-0.0000,1936.0000,1178.0000,1500.0000,2000.0000
173254.6940,2.0000,2000.0000,1000.0000,1387.0000,-194.0000,-86.0000,62.0000,1056.0000,-63.0000,6116.0000,-0.5993,-0.2580,-0.6326,-0.4174,116.1500,-60.2100,-107.7400,-12.0000,-1.7700,10.4400,0.0000,0.0000,-0.0000,1936.0000,1178.0000,1500.0000,2000.0000
173271.2660,2.0000,2000.0000,1000.0000,1387.0000,-127.0000,-103.0000,42.0000,1073.0000,-35.0000,6254.0000,-0.6103,-0.2541,-0.6125,-0.4333,115.8100,-60.3000,-107.5500,-11.7500,-2.3900,10.6100,0.0000,0.0000,-0.0000,1936.0000,1178.0000,1500.0000,2000.0000
173288.0680,2.0000,2000.0000,1000.0000,1385.0000,-37.0000,-105.0000,9.0000,986.0000,408.0000,6480.0000,-0.6207,-0.2554,-0.5971,-0.4393,115.4800,-60.4000,-107.3700,-11.5000,-2.9500,10.7200,0.0000,0.0000,-0.0000,1938.0000,1179.0000,1500.0000,2000.0000
173304.7400,2.0000,2000.0000,1000.0000,1384.0000,51.0000,-106.0000,-23.0000,1114.0000,441.0000,7079.0000,-0.6298,-0.2619,-0.5885,-0.4341,115.1500,-60.5200,-107.1800,-11.1700,-3.5500,10.7800,0.0000,0.0000,-0.0000,1938.0000,1179.0000,1500.0000,2000.0000
173321.5810,2.0000,2000.0000,1000.0000,1384.0000,114.0000,-102.0000,-49.0000,936.0000,146.0000,7536.0000,-0.6376,-0.2729,-0.5857,-0.4195,115.1500,-60.5200,-107.1800,-11.1700,-3.5500,10.7800,0.0000,0.0000,-0.0000,1938.0000,1179.0000,1500.0000,2000.0000
173338.4960,2.0000,2000.0000,1000.0000,1384.0000,161.0000,-90.0000,-72.0000,874.0000,28.0000,7594.0000,-0.6435,-0.2864,-0.5877,-0.3980,114.8100,-60.6600,-106.9900,-10.7000,-4.1600,10.8300,0.0000,0.0000,-0.0000,1938.0000,1179.0000,1500.0000,2000.0000
173355.3900,2.0000,2000.0000,1000.0000,1384.0000,195.0000,-86.0000,-86.0000,888.0000,-125.0000,7400.0000,-0.6477,-0.3013,-0.5931,-0.3715,114.5000,-60.8200,-106.8100,-10.2200,-4.6800,10.9000,0.0000,0.0000,-0.0000,1938.0000,1179.0000,1500.0000,2000.0000
173372.1230,2.0000,2000.0000,1000.0000,1384.0000,218.0000,-78.0000,-96.0000,831.0000,-166.0000,6926.0000,-0.6498,-0.3165,-0.6006,-0.3418,114.2000,-60.9800,-106.6200,-9.7700,-5.1200,11.0200,0.0000,0.0000,-0.0000,1938.0000,1179.0000,1500.0000,2000.0000
173388.8640,2.0000,2000.0000,2000.0000,1719.0000,236.0000,-74.0000,-104.0000,705.0000,24.0000,5961.0000,-0.6503,-0.3320,-0.6092,-0.3094,113.9100,-61.1400,-106.4400,-9.4100,-5.4800,11.1800,0.0000,0.0000,-0.0000,1002.0000,1764.0000,1500.0000,2000.0000
173405.5960,2.0000,2000.0000,2000.0000,1735.0000,253.0000,-76.0000,-111.0000,517.0000,-250.0000,5550.0000,-0.6493,-0.3481,-0.6182,-0.2742,113.6200,-61.3300,-106.2500,-9.0900,-5.8300,11.3600,0.0000,0.0000,-0.0000,1002.0000,1764.0000,1500.0000,2000.0000
173422.6590,2.0000,2000.0000,2000.0000,1735.0000,264.0000,-75.0000,-112.0000,408.0000,-312.0000,4880.0000,-0.6465,-0.3652,-0.6269,-0.2357,113.6200,-61.3300,-106.2500,-9.0900,-5.8300,11.3600,0.0000,0.0000,-0.0000,1002.0000,1764.0000,1500.0000,2000.0000
173439.5520,2.0000,2000.0000,2000.0000,1735.0000,236.0000,-85.0000,-105.0000,564.0000,-387.0000,4628.0000,-0.6434,-0.3816,-0.6336,-0.1974,113.3300,-61.5400,-106.0500,-8.7500,-6.1900,11.6000,0.0000,0.0000,-0.0000,1002.0000,1764.0000,1500.0000,2000.0000
173456.6110,2.0000,2000.0000,2000.0000,1735.0000,158.0000,-103.0000,-86.0000,593.0000,-694.0000,5099.0000,-0.6433,-0.3936,-0.6358,-0.1644,113.0500,-61.7500,-105.8500,-8.4900,-6.5000,11.8700,0.0000,0.0000,-0.0000,1002.0000,1764.0000,1500.0000,2000.0000
173473.2370,2.0000,2000.0000,2000.0000,1735.0000,73.0000,-108.0000,-62.0000,609.0000,-981.0000,5986.0000,-0.6480,-0.3993,-0.6330,-0.1414,112.7800,-61.9600,-105.6500,-8.2300,-6.7300,12.1900,0.0000,0.0000,-0.0000,1002.0000,1764.0000,1500.0000,2000.0000
173490.0480,2.0000,2000.0000,2000.0000,1735.0000,-19.0000,-94.0000,-32.0000,746.0000,-1150.0000,7318.0000,-0.6569,-0.3989,-0.6267,-0.1291,112.5300,-62.1700,-105.4400,-7.9000,-6.8500,12.5700,0.0000,0.0000,-0.0000,1002.0000,1764.0000,1500.0000,2000.0000
173507.0340,2.0000,2000.0000,2000.0000,1734.0000,-120.0000,-58.0000,-6.0000,704.0000,-1125.0000,8575.0000,-0.6684,-0.3910,-0.6193,-0.1301,112.2800,-62.3800,-105.2100,-7.4000,-6.9100,12.9600,0.0000,0.0000,-0.0000,1002.0000,1765.0000,1500.0000,2000.0000
173523.8830,2.0000,2000.0000,2000.0000,1734.0000,-233.0000,-6.0000,15.0000,487.0000,-897.0000,8848.0000,-0.6813,-0.3739,-0.6123,-0.1454,112.2800,-62.3800,-105.2100,-7.4000,-6.9100,12.9600,0.0000,0.0000,-0.0000,1002.0000,1765.0000,1500.0000,2000.0000
173540.9500,2.0000,2000.0000,2000.0000,1734.0000,-320.0000,58.0000,32.0000,387.0000,-552.0000,7470.0000,-0.6932,-0.3465,-0.6073,-0.1749,112.0500,-62.6100,-104.9700,-6.7600,-6.9700,13.3000,0.0000,0.0000,-0.0000,1002.0000,1765.0000,1500.0000,2000.0000
173557.6910,2.0000,2000.0000,2000.0000,1734.0000,-372.0000,107.0000,43.0000,76.0000,-346.0000,4808.0000,-0.7017,-0.3118,-0.6039,-0.2136,111.8400,-62.8300,-104.7200,-6.2100,-7.0900,13.5600,0.0000,0.0000,-0.0000,1002.0000,1765.0000,1500.0000,2000.0000
173574.6520,2.0000,2000.0000,2000.0000,1734.0000,-420.0000,148.0000,50.0000,208.0000,-170.0000,1611.0000,-0.7060,-0.2703,-0.6011,-0.2591,111.6400,-63.0500,-104.4700,-5.9700,-7.3400,13.7300,0.0000,0.0000,-0.0000,1002.0000,1765.0000,1500.0000,2000.0000
173591.6380,2.0000,2000.0000,2000.0000,1734.0000,-447.0000,178.0000,51.0000,41.0000,175.0000,-1699.0000,-0.7050,-0.2224,-0.5983,-0.3091,111.4300,-63.2800,-104.2400,-6.1500,-7.7500,13.8300,0.0000,0.0000,-0.0000,1002.0000,1765.0000,1500.0000,2000.0000
173608.5810,2.0000,2000.0000,1499.0000,1203.0000,-459.0000,188.0000,49.0000,220.0000,301.0000,-4213.0000,-0.6998,-0.1708,-0.5933,-0.3594,111.1800,-63.5500,-104.0200,-6.6300,-8.1800,13.8400,0.0000,0.0000,-0.0000,1651.0000,1650.0000,1500.0000,2000.0000
173626.2110,2.0000,2000.0000,1499.0000,1203.0000,-461.0000,176.0000,38.0000,91.0000,927.0000,-5797.0000,-0.6906,-0.1147,-0.5847,-0.4098,111.1800,-63.5500,-104.0200,-6.6300,-8.1800,13.8400,0.0000,0.0000,-0.0000,1651.0000,1650.0000,1500.0000,2000.0000
173642.9360,2.0000,2000.0000,1499.0000,1203.0000,-420.0000,173.0000,20.0000,457.0000,1387.0000,-5740.0000,-0.6799,-0.0621,-0.5737,-0.4524,110.9200,-63.8600,-103.8100,-7.2200,-8.4700,13.8000,0.0000,0.0000,-0.0000,1651.0000,1650.0000,1500.0000,2000.0000
173659.6150,2.0000,2000.0000,1499.0000,1203.0000,-330.0000,150.0000,-10.0000,285.0000,1368.0000,-5949.0000,-0.6688,-0.0146,-0.5634,-0.4849,110.6500,-64.1500,-103.6300,-7.7700,-8.6600,13.6600,0.0000,0.0000,-0.0000,1651.0000,1650.0000,1500.0000,2000.0000
173676.1050,2.0000,2000.0000,1499.0000,1203.0000,-190.0000,142.0000,-52.0000,129.0000,1320.0000,-5966.0000,-0.6595,0.0229,-0.5586,-0.5025,110.4000,-64.4200,-103.4800,-8.2200,-8.7300,13.5600,0.0000,0.0000,-0.0000,1651.0000,1650.0000,1500.0000,2000.0000
173693.0810,2.0000,2000.0000,1000.0000,1383.0000,-43.0000,142.0000,-85.0000,666.0000,1046.0000,-6442.0000,-0.6528,0.0497,-0.5635,-0.5038,110.1600,-64.6700,-103.3600,-8.5800,-8.7200,13.5400,0.0000,0.0000,-0.0000,1937.0000,1181.0000,1500.0000,2000.0000
173709.3940,2.0000,2000.0000,1000.0000,1383.0000,52.0000,134.0000,-106.0000,-154.0000,880.0000,-7461.0000,-0.6486,0.0661,-0.5767,-0.4923,109.9000,-64.9400,-103.2500,-8.8100,-8.5700,13.5600,0.0000,0.0000,-0.0000,1937.0000,1181.0000,1500.0000,2000.0000
173726.4730,2.0000,2000.0000,1000.0000,1383.0000,120.0000,82.0000,-130.0000,21.0000,806.0000,-9991.0000,-0.6483,0.0757,-0.5928,-0.4717,109.9000,-64.9400,-103.2500,-8.8100,-8.5700,13.5600,0.0000,0.0000,-0.0000,1937.0000,1181.0000,1500.0000,2000.0000
173743.5820,2.0000,2000.0000,1000.0000,1383.0000,189.0000,-5.0000,-150.0000,-127.0000,594.0000,-11064.0000,-0.6565,0.0757,-0.6054,-0.4436,109.6400,-65.2100,-103.1400,-9.0500,-8.1900,13.6000,0.0000,0.0000,-0.0000,1937.0000,1181.0000,1500.0000,2000.0000
173760.4690,2.0000,2000.0000,1000.0000,1383.0000,242.0000,-89.0000,-163.0000,62.0000,188.0000,-9190.0000,-0.6734,0.0655,-0.6121,-0.4094,109.3900,-65.4600,-103.0500,-9.3900,-7.7300,13.6500,0.0000,0.0000,-0.0000,1937.0000,1181.0000,1500.0000,2000.0000
173777.3400,2.0000,2000.0000,1000.0000,1383.0000,282.0000,-158.0000,-169.0000,-2.0000,-360.0000,-5303.0000,-0.6967,0.0470,-0.6128,-0.3700,109.1500,-65.6800,-102.9800,-9.5700,-7.4300,13.7600,0.0000,0.0000,-0.0000,1937.0000,1181.0000,1500.0000,2000.0000
173794.1380,2.0000,1998.0000,2000.0000,1832.0000,313.0000,-194.0000,-163.0000,12.0000,-881.0000,9.0000,-0.7226,0.0222,-0.6083,-0.3275,108.9300,-65.8900,-102.9100,-9.3700,-7.4100,13.8700,0.0000,0.0000,-0.0000,1000.0000,1670.0000,1500.0000,1999.0000
173810.8370,2.0000,1998.0000,2000.0000,1832.0000,329.0000,-202.0000,-147.0000,37.0000,-1104.0000,4933.0000,-0.7471,-0.0070,-0.6013,-0.2834,108.7000,-66.1100,-102.7900,-8.6400,-7.6100,14.3100,0.0000,0.0000,-0.0000,1000.0000,1670.0000,1500.0000,1999.0000
173827.6620,2.0000,1998.0000,2000.0000,1832.0000,280.0000,-216.0000,-109.0000,491.0000,-1740.0000,8051.0000,-0.7693,-0.0376,-0.5903,-0.2415,108.7000,-66.1100,-102.7900,-8.6400,-7.6100,14.3100,0.0000,0.0000,-0.0000,1000.0000,1670.0000,1500.0000,1999.0000
173844.7290,2.0000,1998.0000,2000.0000,1832.0000,187.0000,-221.0000,-53.0000,973.0000,-2243.0000,10494.0000,-0.7890,-0.0647,-0.5735,-0.2109,108.5000,-66.3500,-102.6300,-7.5700,-7.8400,14.7100,0.0000,0.0000,-0.0000,1000.0000,1670.0000,1500.0000,1999.0000
173861.7290,2.0000,1998.0000,2000.0000,1832.0000,74.0000,-207.0000,-4.0000,1342.0000,-2229.0000,13854.0000,-0.8062,-0.0839,-0.5522,-0.1949,108.3300,-66.5900,-102.4200,-6.3200,-7.9700,15.0800,0.0000,0.0000,-0.0000,1000.0000,1670.0000,1500.0000,1999.0000
173878.3670,2.0000,1998.0000,2000.0000,1832.0000,-48.0000,-160.0000,41.0000,1300.0000,-2048.0000,16307.0000,-0.8199,-0.0915,-0.5306,-0.1947,108.1900,-66.8000,-102.1900,-4.8900,-8.0300,15.3100,0.0000,0.0000,-0.0000,1000.0000,1670.0000,1500.0000,1999.0000
173895.1780,2.0000,1998.0000,1792.0000,1704.0000,-165.0000,-87.0000,78.0000,1066.0000,-1629.0000,17158.0000,-0.8287,-0.0860,-0.5118,-0.2096,108.0900,-67.0100,-101.9300,-3.4400,-8.0800,15.3100,0.0000,0.0000,-0.0000,1251.0000,1546.0000,1500.0000,1999.0000
173912.1080,2.0000,1998.0000,1792.0000,1704.0000,-275.0000,-10.0000,101.0000,633.0000,-1132.0000,15590.0000,-0.8315,-0.0669,-0.4978,-0.2372,108.0000,-67.2400,-101.6400,-2.2300,-8.2000,15.1400,0.0000,0.0000,-0.0000,1251.0000,1546.0000,1500.0000,1999.0000
173929.0910,2.0000,1998.0000,1792.0000,1704.0000,-334.0000,40.0000,114.0000,430.0000,-1028.0000,11846.0000,-0.8283,-0.0356,-0.4875,-0.2738,108.0000,-67.2400,-101.6400,-2.2300,-8.2000,15.1400,0.0000,0.0000,-0.0000,1251.0000,1546.0000,1500.0000,1999.0000
173946.1550,2.0000,1998.0000,1792.0000,1704.0000,-363.0000,73.0000,121.0000,133.0000,-435.0000,7426.0000,-0.8196,0.0016,-0.4793,-0.3139,107.9200,-67.4800,-101.3200,-1.4800,-8.3900,14.9800,0.0000,0.0000,-0.0000,1251.0000,1546.0000,1500.0000,1999.0000
173962.9270,2.0000,1998.0000,1792.0000,1704.0000,-381.0000,87.0000,124.0000,160.0000,109.0000,4152.0000,-0.8069,0.0414,-0.4709,-0.3543,107.8500,-67.7100,-100.9900,-1.2700,-8.5800,14.9600,0.0000,0.0000,-0.0000,1251.0000,1546.0000,1500.0000,1999.0000
173979.6510,2.0000,1998.0000,1282.0000,1548.0000,-395.0000,107.0000,122.0000,175.0000,429.0000,1967.0000,-0.7898,0.0840,-0.4623,-0.3943,107.7800,-67.9300,-100.6600,-1.4400,-8.7100,15.0900,0.0000,0.0000,-0.0000,1938.0000,1179.0000,1500.0000,2000.0000
173996.3790,2.0000,2000.0000,1000.0000,1384.0000,-395.0000,117.0000,108.0000,207.0000,753.0000,483.0000,-0.7691,0.1282,-0.4531,-0.4321,107.7200,-68.1400,-100.3300,-1.7900,-8.7600,15.3200,0.0000,0.0000,-0.0000,1938.0000,1179.0000,1500.0000,2000.0000
174013.0550,2.0000,2000.0000,1000.0000,1384.0000,-369.0000,127.0000,79.0000,-79.0000,1440.0000,-902.0000,-0.7466,0.1724,-0.4436,-0.4649,107.7200,-68.1400,-100.3300,-1.7900,-8.7600,15.3200,0.0000,0.0000,-0.0000,1938.0000,1179.0000,1500.0000,2000.0000
174030.0500,2.0000,2000.0000,1000.0000,1384.0000,-263.0000,112.0000,31.0000,-276.0000,1834.0000,-2500.0000,-0.7254,0.2126,-0.4358,-0.4886,107.6200,-68.3600,-99.9700,-2.3000,-8.6300,15.6100,0.0000,0.0000,-0.0000,1938.0000,1179.0000,1500.0000,2000.0000
174046.8170,2.0000,2000.0000,1000.0000,1384.0000,-130.0000,98.0000,-15.0000,14.0000,1633.0000,-4026.0000,-0.7115,0.2408,-0.4328,-0.4985,107.5200,-68.5700,-99.6100,-2.9100,-8.3200,15.8800,0.0000,0.0000,-0.0000,1938.0000,1179.0000,1500.0000,2000.0000
174063.6760,2.0000,2000.0000,1000.0000,1384.0000,15.0000,59.0000,-60.0000,337.0000,1626.0000,-5680.0000,-0.7067,0.2554,-0.4356,-0.4955,107.4000,-68.7700,-99.2500,-3.4800,-7.9000,16.2300,0.0000,0.0000,-0.0000,1938.0000,1179.0000,1500.0000,2000.0000
174080.4870,2.0000,2000.0000,1000.0000,1384.0000,138.0000,6.0000,-108.0000,-266.0000,1583.0000,-6394.0000,-0.7136,0.2551,-0.4410,-0.4808,107.2900,-68.9400,-98.9000,-4.0300,-7.3800,16.5900,0.0000,0.0000,-0.0000,1938.0000,1179.0000,1500.0000,2000.0000
174097.5790,2.0000,2000.0000,1000.0000,1383.0000,226.0000,-46.0000,-147.0000,-1018.0000,1099.0000,-5160.0000,-0.7308,0.2424,-0.4466,-0.4558,107.1700,-69.0900,-98.5600,-4.5200,-6.8600,16.8900,0.0000,0.0000,-0.0000,1938.0000,1180.0000,1500.0000,2000.0000
174114.1200,2.0000,2000.0000,1000.0000,1383.0000,276.0000,-76.0000,-169.0000,-1041.0000,487.0000,-2661.0000,-0.7534,0.2217,-0.4504,-0.4248,107.1700,-69.0900,-98.5600,-4.5200,-6.8600,16.8900,0.0000,0.0000,-0.0000,1938.0000,1180.0000,1500.0000,2000.0000
174131.0420,2.0000,2000.0000,1000.0000,1383.0000,311.0000,-106.0000,-178.0000,-653.0000,79.0000,294.0000,-0.7789,0.1945,-0.4525,-0.3883,107.0400,-69.2500,-98.2100,-4.6400,-6.4900,17.0400,0.0000,0.0000,-0.0000,1938.0000,1180.0000,1500.0000,2000.0000
174147.6270,2.0000,2000.0000,1000.0000,1383.0000,339.0000,-118.0000,-177.0000,-653.0000,-520.0000,2699.0000,-0.8041,0.1632,-0.4522,-0.3497,106.9300,-69.4100,-97.8400,-4.4700,-6.3800,17.3300,0.0000,0.0000,-0.0000,1938.0000,1180.0000,1500.0000,2000.0000
174164.4910,2.0000,2000.0000,1000.0000,1383.0000,364.0000,-132.0000,-161.0000,-55.0000,-1184.0000,6029.0000,-0.8280,0.1263,-0.4505,-0.3091,106.8200,-69.5500,-97.4700,-4.0900,-6.4000,17.5100,0.0000,0.0000,-0.0000,1938.0000,1180.0000,1500.0000,2000.0000
174181.1810,2.0000,1998.0000,1688.0000,2000.0000,387.0000,-145.0000,-132.0000,53.0000,-1941.0000,8454.0000,-0.8487,0.0848,-0.4473,-0.2691,106.7300,-69.6900,-97.0900,-3.4500,-6.5200,17.5700,0.0000,0.0000,-0.0000,1000.0000,1193.0000,1500.0000,1999.0000
174197.8800,2.0000,1998.0000,1693.0000,2000.0000,399.0000,-147.0000,-90.0000,-9.0000,-2398.0000,10277.0000,-0.8655,0.0377,-0.4425,-0.2316,106.6600,-69.8200,-96.7000,-2.6500,-6.5400,17.5000,0.0000,0.0000,-0.0000,1000.0000,1193.0000,1500.0000,1999.0000
174214.7330,2.0000,1998.0000,1693.0000,2000.0000,374.0000,-145.0000,-45.0000,288.0000,-2207.0000,12279.0000,-0.8778,-0.0126,-0.4359,-0.1981,106.6600,-69.8200,-96.7000,-2.6500,-6.5400,17.5000,0.0000,0.0000,-0.0000,1000.0000,1193.0000,1500.0000,1999.0000
174231.6930,2.0000,1998.0000,1693.0000,2000.0000,274.0000,-145.0000,8.0000,634.0000,-1995.0000,13234.0000,-0.8859,-0.0584,-0.4261,-0.1736,106.6100,-69.9600,-96.2800,-1.6700,-6.2600,17.3000,0.0000,0.0000,-0.0000,1000.0000,1193.0000,1500.0000,1999.0000
174248.5100,2.0000,1998.0000,1693.0000,2000.0000,150.0000,-148.0000,57.0000,882.0000,-1968.0000,13874.0000,-0.8919,-0.0921,-0.4117,-0.1628,106.5800,-70.0900,-95.8600,-0.6700,-5.8600,16.9900,0.0000,0.0000,-0.0000,1000.0000,1193.0000,1500.0000,1999.0000
174265.2260,2.0000,1998.0000,1693.0000,2000.0000,2.0000,-133.0000,101.0000,962.0000,-1600.0000,14629.0000,-0.8973,-0.1106,-0.3938,-0.1661,106.5700,-70.2000,-95.4400,0.2800,-5.4400,16.6200,0.0000,0.0000,-0.0000,1000.0000,1193.0000,1500.0000,1999.0000
174281.9770,2.0000,1998.0000,1693.0000,2000.0000,-137.0000,-103.0000,136.0000,617.0000,-1276.0000,15453.0000,-0.9021,-0.1112,-0.3745,-0.1834,106.5800,-70.3000,-95.0500,1.1700,-5.0700,16.1300,0.0000,0.0000,-0.0000,1000.0000,1193.0000,1500.0000,1999.0000
174299.1030,2.0000,2000.0000,1000.0000,1368.0000,-251.0000,-69.0000,154.0000,286.0000,-741.0000,14999.0000,-0.9056,-0.0949,-0.3548,-0.2122,106.6200,-70.4000,-94.6600,2.1200,-4.8700,15.4400,0.0000,0.0000,-0.0000,1932.0000,1201.0000,1500.0000,2000.0000
174316.1820,2.0000,2000.0000,1000.0000,1368.0000,-322.0000,-37.0000,160.0000,234.0000,-273.0000,13323.0000,-0.9065,-0.0657,-0.3358,-0.2475,106.6200,-70.4000,-94.6600,2.1200,-4.8700,15.4400,0.0000,0.0000,-0.0000,1932.0000,1201.0000,1500.0000,2000.0000
174333.0200,2.0000,2000.0000,1000.0000,1368.0000,-349.0000,-17.0000,154.0000,125.0000,-98.0000,11404.0000,-0.9040,-0.0286,-0.3179,-0.2845,106.6700,-70.5100,-94.2900,2.8500,-4.8400,14.7400,0.0000,0.0000,-0.0000,1932.0000,1201.0000,1500.0000,2000.0000
174349.6700,2.0000,2000.0000,1000.0000,1368.0000,-296.0000,-26.0000,134.0000,-31.0000,209.0000,9248.0000,-0.8992,0.0069,-0.3007,-0.3178,106.7300,-70.6000,-93.9500,3.3300,-4.9400,14.1100,0.0000,0.0000,-0.0000,1932.0000,1201.0000,1500.0000,2000.0000
174366.1950,2.0000,2000.0000,1000.0000,1368.0000,-200.0000,-47.0000,86.0000,-90.0000,1024.0000,7838.0000,-0.8946,0.0322,-0.2849,-0.3428,106.8000,-70.7000,-93.6100,3.5600,-5.1000,13.6200,0.0000,0.0000,-0.0000,1932.0000,1201.0000,1500.0000,2000.0000
174383.0340,2.0000,2000.0000,1000.0000,1368.0000,-71.0000,-73.0000,22.0000,-371.0000,1620.0000,7316.0000,-0.8938,0.0448,-0.2700,-0.3554,106.8600,-70.8000,-93.2800,3.5600,-5.3100,13.2100,0.0000,0.0000,-0.0000,1932.0000,1201.0000,1500.0000,2000.0000
174400.1060,2.0000,2000.0000,1336.0000,1248.0000,61.0000,-85.0000,-32.0000,-190.0000,952.0000,8611.0000,-0.8975,0.0407,-0.2591,-0.3546,106.9400,-70.9100,-92.9500,3.7100,-5.5300,12.7700,0.0000,0.0000,-0.0000,1710.0000,1547.0000,1500.0000,2000.0000
174417.2570,2.0000,2000.0000,1337.0000,1247.0000,158.0000,-82.0000,-82.0000,-169.0000,834.0000,8826.0000,-0.9044,0.0231,-0.2537,-0.3423,106.9400,-70.9100,-92.9500,3.7100,-5.5300,12.7700,0.0000,0.0000,-0.0000,1710.0000,1547.0000,1500.0000,2000.0000
174434.0120,2.0000,2000.0000,1337.0000,1247.0000,239.0000,-66.0000,-119.0000,-146.0000,773.0000,9086.0000,-0.9126,-0.0034,-0.2531,-0.3210,107.0300,-71.0200,-92.6400,3.9700,-5.7100,12.2500,0.0000,0.0000,-0.0000,1710.0000,1547.0000,1500.0000,2000.0000
174450.7700,2.0000,2000.0000,1337.0000,1247.0000,286.0000,-20.0000,-131.0000,-242.0000,287.0000,9078.0000,-0.9193,-0.0365,-0.2596,-0.2935,107.1100,-71.1300,-92.3400,4.2500,-5.8200,11.7000,0.0000,0.0000,-0.0000,1710.0000,1547.0000,1500.0000,2000.0000
174467.6700,2.0000,2000.0000,1337.0000,1247.0000,311.0000,31.0000,-129.0000,-416.0000,-130.0000,7688.0000,-0.9221,-0.0718,-0.2737,-0.2637,107.2100,-71.2400,-92.0600,4.5600,-5.8200,11.1900,0.0000,0.0000,-0.0000,1710.0000,1547.0000,1500.0000,2000.0000
174484.5210,2.0000,2000.0000,2000.0000,1664.0000,335.0000,70.0000,-118.0000,-100.0000,-315.0000,5136.0000,-0.9203,-0.1086,-0.2942,-0.2338,107.3000,-71.3500,-91.7900,4.8100,-5.6900,10.8600,0.0000,0.0000,-0.0000,1006.0000,1746.0000,1500.0000,2000.0000
174501.5960,2.0000,2000.0000,2000.0000,1750.0000,347.0000,111.0000,-101.0000,-35.0000,-636.0000,2311.0000,-0.9132,-0.1477,-0.3201,-0.2044,107.4200,-71.4600,-91.5000,5.1200,-5.5800,10.8400,0.0000,0.0000,-0.0000,1006.0000,1746.0000,1500.0000,2000.0000
174518.3200,2.0000,2000.0000,2000.0000,1750.0000,290.0000,130.0000,-74.0000,304.0000,-1079.0000,-759.0000,-0.9020,-0.1834,-0.3473,-0.1793,107.4200,-71.4600,-91.5000,5.1200,-5.5800,10.8400,0.0000,0.0000,-0.0000,1006.0000,1746.0000,1500.0000,2000.0000
174535.1880,2.0000,2000.0000,2000.0000,1750.0000,140.0000,138.0000,-37.0000,47.0000,-1059.0000,-4165.0000,-0.8899,-0.2064,-0.3723,-0.1637,107.5500,-71.5700,-91.1900,5.2600,-5.4700,11.1200,0.0000,0.0000,-0.0000,1006.0000,1746.0000,1500.0000,2000.0000
174552.0060,2.0000,2000.0000,2000.0000,1750.0000,-66.0000,121.0000,14.0000,-292.0000,-1128.0000,-6645.0000,-0.8818,-0.2076,-0.3906,-0.1638,107.6800,-71.6600,-90.8600,5.1500,-5.4300,11.6100,0.0000,0.0000,-0.0000,1006.0000,1746.0000,1500.0000,2000.0000
174568.8120,2.0000,2000.0000,2000.0000,1750.0000,-245.0000,98.0000,64.0000,-1018.0000,-1175.0000,-6961.0000,-0.8793,-0.1867,-0.3990,-0.1810,107.8000,-71.7500,-90.5400,4.7800,-5.4300,11.9800,0.0000,0.0000,-0.0000,1006.0000,1746.0000,1500.0000,2000.0000
174585.3960,2.0000,2000.0000,2000.0000,1750.0000,-352.0000,78.0000,86.0000,-1193.0000,-666.0000,-6466.0000,-0.8796,-0.1501,-0.3995,-0.2100,107.9000,-71.8400,-90.2500,4.4000,-5.3600,12.2800,0.0000,0.0000,-0.0000,1006.0000,1746.0000,1500.0000,2000.0000
174601.9250,2.0000,2000.0000,1611.0000,1237.0000,-427.0000,65.0000,97.0000,-643.0000,-51.0000,-6313.0000,-0.8797,-0.1041,-0.3943,-0.2446,107.9000,-71.8400,-90.2500,4.4000,-5.3600,12.2800,0.0000,0.0000,-0.0000,1635.0000,1684.0000,1500.0000,2000.0000
174618.9510,2.0000,2000.0000,1549.0000,1185.0000,-491.0000,60.0000,96.0000,-1036.0000,397.0000,-4956.0000,-0.8778,-0.0470,-0.3828,-0.2839,108.0800,-71.9500,-89.9700,4.8000,-5.4300,12.5000,0.0000,0.0000,-0.0000,1635.0000,1684.0000,1500.0000,2000.0000
174635.7250,2.0000,2000.0000,1549.0000,1185.0000,-492.0000,78.0000,86.0000,-986.0000,648.0000,-2556.0000,-0.8714,0.0148,-0.3692,-0.3226,108.2700,-72.0600,-89.7100,5.3000,-5.4800,12.6000,0.0000,0.0000,-0.0000,1635.0000,1684.0000,1500.0000,2000.0000
174652.5060,2.0000,2000.0000,1549.0000,1185.0000,-414.0000,111.0000,65.0000,-695.0000,956.0000,-1638.0000,-0.8600,0.0731,-0.3591,-0.3551,108.4700,-72.1600,-89.4800,5.8800,-5.5100,12.6400,0.0000,0.0000,-0.0000,1635.0000,1684.0000,1500.0000,2000.0000
174669.2690,2.0000,2000.0000,1549.0000,1185.0000,-279.0000,154.0000,19.0000,-248.0000,1648.0000,-2442.0000,-0.8461,0.1211,-0.3580,-0.3760,108.6500,-72.2600,-89.2600,6.4600,-5.5800,12.8500,0.0000,0.0000,-0.0000,1635.0000,1684.0000,1500.0000,2000.0000
174686.0840,2.0000,2000.0000,1549.0000,1185.0000,-91.0000,177.0000,-41.0000,0.0000,2280.0000,-4834.0000,-0.8344,0.1536,-0.3683,-0.3802,108.8400,-72.3500,-89.0400,6.8600,-5.6200,13.1800,0.0000,0.0000,-0.0000,1635.0000,1684.0000,1500.0000,2000.0000
174702.9530,2.0000,2000.0000,1546.0000,1186.0000,54.0000,220.0000,-75.0000,-201.0000,1818.0000,-6711.0000,-0.8268,0.1687,-0.3910,-0.3675,108.8400,-72.3500,-89.0400,6.8600,-5.6200,13.1800,0.0000,0.0000,-0.0000,1636.0000,1682.0000,1500.0000,2000.0000
174720.0520,2.0000,2000.0000,1546.0000,1186.0000,123.0000,228.0000,-98.0000,-1022.0000,1420.0000,-9510.0000,-0.8203,0.1744,-0.4217,-0.3447,109.1100,-72.4700,-88.7900,7.3700,-5.4700,13.6700,0.0000,0.0000,-0.0000,1636.0000,1682.0000,1500.0000,2000.0000
174736.7520,2.0000,2000.0000,1546.0000,1186.0000,168.0000,181.0000,-117.0000,-664.0000,1414.0000,-13083.0000,-0.8166,0.1731,-0.4507,-0.3162,109.3800,-72.5800,-88.5600,7.6600,-5.1000,14.0600,0.0000,0.0000,-0.0000,1636.0000,1682.0000,1500.0000,2000.0000
174753.8920,2.0000,2000.0000,1546.0000,1186.0000,188.0000,109.0000,-122.0000,-334.0000,905.0000,-14211.0000,-0.8168,0.1658,-0.4734,-0.2850,109.6300,-72.6700,-88.3400,7.6400,-4.5800,14.4600,0.0000,0.0000,-0.0000,1636.0000,1682.0000,1500.0000,2000.0000
174770.4770,2.0000,2000.0000,1546.0000,1186.0000,196.0000,44.0000,-119.0000,-402.0000,-6.0000,-12629.0000,-0.8211,0.1541,-0.4867,-0.2553,109.8600,-72.7400,-88.1500,7.5000,-4.0700,14.8100,0.0000,0.0000,-0.0000,1636.0000,1682.0000,1500.0000,2000.0000
174787.6210,2.0000,1998.0000,1470.0000,1334.0000,222.0000,-1.0000,-103.0000,-792.0000,-725.0000,-9161.0000,-0.8283,0.1373,-0.4941,-0.2257,110.0800,-72.8000,-87.9800,7.5100,-3.7000,15.1500,0.0000,0.0000,-0.0000,1600.0000,1570.0000,1500.0000,1999.0000
174804.6950,2.0000,1998.0000,1470.0000,1334.0000,231.0000,-10.0000,-80.0000,-911.0000,-1089.0000,-6114.0000,-0.8359,0.1157,-0.4988,-0.1977,110.3600,-72.8900,-87.7700,7.7600,-3.5100,15.4100,0.0000,0.0000,-0.0000,1600.0000,1570.0000,1500.0000,1999.0000
174821.8840,2.0000,1998.0000,1470.0000,1334.0000,221.0000,-14.0000,-47.0000,-297.0000,-1350.0000,-4604.0000,-0.8422,0.0913,-0.5026,-0.1727,110.3600,-72.8900,-87.7700,7.7600,-3.5100,15.4100,0.0000,0.0000,-0.0000,1600.0000,1570.0000,1500.0000,1999.0000
174838.8210,2.0000,1998.0000,1470.0000,1334.0000,205.0000,-15.0000,-4.0000,130.0000,-1786.0000,-3869.0000,-0.8462,0.0663,-0.5058,-0.1537,110.6400,-72.9700,-87.5600,8.1600,-3.4500,15.7300,0.0000,0.0000,-0.0000,1600.0000,1570.0000,1500.0000,1999.0000
174855.8440,2.0000,1998.0000,1470.0000,1334.0000,200.0000,7.0000,38.0000,813.0000,-1824.0000,-2843.0000,-0.8480,0.0391,-0.5096,-0.1403,110.9000,-73.0400,-87.3400,8.5900,-3.4300,16.2100,0.0000,0.0000,-0.0000,1600.0000,1570.0000,1500.0000,1999.0000
174872.7710,2.0000,1998.0000,1470.0000,1334.0000,197.0000,36.0000,69.0000,-25.0000,-1614.0000,-1089.0000,-0.8463,0.0103,-0.5161,-0.1316,111.1600,-73.1100,-87.1100,9.0500,-3.4400,16.7700,0.0000,0.0000,-0.0000,1600.0000,1570.0000,1500.0000,1999.0000
174889.4180,2.0000,2000.0000,1547.0000,1187.0000,190.0000,60.0000,103.0000,-305.0000,-1284.0000,-597.0000,-0.8410,-0.0193,-0.5256,-0.1270,111.4100,-73.1700,-86.8500,9.5200,-3.5100,17.3200,0.0000,0.0000,-0.0000,1635.0000,1683.0000,1500.0000,2000.0000
174906.1690,2.0000,2000.0000,1548.0000,1186.0000,189.0000,99.0000,129.0000,-170.0000,-956.0000,-1215.0000,-0.8322,-0.0504,-0.5375,-0.1260,111.7200,-73.2600,-86.5200,9.8000,-3.4100,17.8500,0.0000,0.0000,-0.0000,1635.0000,1683.0000,1500.0000,2000.0000
174923.0410,2.0000,2000.0000,1548.0000,1186.0000,210.0000,142.0000,147.0000,73.0000,-684.0000,-2661.0000,-0.8182,-0.0841,-0.5544,-0.1270,111.7200,-73.2600,-86.5200,9.8000,-3.4100,17.8500,0.0000,0.0000,-0.0000,1635.0000,1683.0000,1500.0000,2000.0000
174939.9270,2.0000,2000.0000,1548.0000,1186.0000,223.0000,190.0000,162.0000,-191.0000,-370.0000,-5526.0000,-0.7981,-0.1206,-0.5761,-0.1288,112.0100,-73.3400,-86.1700,9.9200,-3.3500,18.4000,0.0000,0.0000,-0.0000,1635.0000,1683.0000,1500.0000,2000.0000
174956.8380,2.0000,2000.0000,1548.0000,1186.0000,208.0000,198.0000,167.0000,35.0000,463.0000,-9229.0000,-0.7735,-0.1571,-0.5996,-0.1320,112.2800,-73.4200,-85.8100,9.7400,-3.3500,18.7200,0.0000,0.0000,-0.0000,1635.0000,1683.0000,1500.0000,2000.0000
174973.3450,2.0000,2000.0000,1548.0000,1186.0000,199.0000,163.0000,155.0000,-343.0000,987.0000,-12653.0000,-0.7493,-0.1918,-0.6194,-0.1348,112.5300,-73.4900,-85.4700,9.1700,-3.4800,18.9100,0.0000,0.0000,-0.0000,1635.0000,1683.0000,1500.0000,2000.0000
174989.9670,2.0000,2000.0000,1313.0000,1247.0000,213.0000,99.0000,123.0000,-944.0000,1942.0000,-13812.0000,-0.7288,-0.2256,-0.6327,-0.1331,112.7400,-73.5600,-85.1500,8.3300,-3.7000,18.7700,0.0000,0.0000,-0.0000,1722.0000,1535.0000,1500.0000,2000.0000
175006.8980,2.0000,2000.0000,1313.0000,1247.0000,227.0000,25.0000,84.0000,-449.0000,2246.0000,-12964.0000,-0.7137,-0.2592,-0.6389,-0.1235,112.7400,-73.5600,-85.1500,8.3300,-3.7000,18.7700,0.0000,0.0000,-0.0000,1722.0000,1535.0000,1500.0000,2000.0000
175024.0790,2.0000,2000.0000,1313.0000,1247.0000,255.0000,-48.0000,49.0000,-175.0000,1938.0000,-12008.0000,-0.7040,-0.2927,-0.6384,-0.1053,112.9700,-73.6500,-84.7900,7.3300,-3.8800,18.6800,0.0000,0.0000,-0.0000,1722.0000,1535.0000,1500.0000,2000.0000
175040.9060,2.0000,2000.0000,1313.0000,1247.0000,283.0000,-101.0000,11.0000,125.0000,1892.0000,-9983.0000,-0.6987,-0.3255,-0.6323,-0.0784,113.1800,-73.7300,-84.4500,6.5900,-4.0800,18.6000,0.0000,0.0000,-0.0000,1722.0000,1535.0000,1500.0000,2000.0000
175057.9510,2.0000,2000.0000,1313.0000,1247.0000,287.0000,-127.0000,-18.0000,-464.0000,1711.0000,-6306.0000,-0.6954,-0.3567,-0.6223,-0.0443,113.3500,-73.8200,-84.1100,6.1500,-4.3000,18.5700,0.0000,0.0000,-0.0000,1722.0000,1535.0000,1500.0000,2000.0000
175074.9610,2.0000,2000.0000,1313.0000,1247.0000,302.0000,-122.0000,-42.0000,-534.0000,1322.0000,-2700.0000,-0.6908,-0.3857,-0.6116,-0.0061,113.5200,-73.9000,-83.7900,6.1400,-4.3600,18.6300,0.0000,0.0000,-0.0000,1722.0000,1535.0000,1500.0000,2000.0000
175091.7780,2.0000,2000.0000,1313.0000,1247.0000,315.0000,-74.0000,-63.0000,-303.0000,1153.0000,662.0000,-0.6815,-0.4127,-0.6034,0.0336,113.6700,-73.9800,-83.4600,6.4700,-4.2000,18.7800,0.0000,0.0000,-0.0000,1722.0000,1535.0000,1500.0000,2000.0000
175108.8570,2.0000,2000.0000,2000.0000,1734.0000,323.0000,-29.0000,-73.0000,-113.0000,644.0000,1639.0000,-0.6653,-0.4388,-0.5996,0.0731,113.6700,-73.9800,-83.4600,6.4700,-4.2000,18.7800,0.0000,0.0000,-0.0000,1002.0000,1765.0000,1500.0000,2000.0000
175125.8750,2.0000,2000.0000,2000.0000,1734.0000,323.0000,25.0000,-74.0000,-495.0000,296.0000,891.0000,-0.6422,-0.4647,-0.5995,0.1103,113.8800,-74.0500,-83.0700,6.9200,-3.8300,19.2800,0.0000,0.0000,-0.0000,1002.0000,1765.0000,1500.0000,2000.0000
175142.9610,2.0000,2000.0000,2000.0000,1734.0000,253.0000,58.0000,-68.0000,-467.0000,245.0000,-806.0000,-0.6157,-0.4879,-0.6023,0.1414,114.0800,-74.1200,-82.6800,7.2600,-3.4600,19.8100,0.0000,0.0000,-0.0000,1002.0000,1765.0000,1500.0000,2000.0000
175159.9490,2.0000,2000.0000,2000.0000,1734.0000,104.0000,85.0000,-52.0000,-390.0000,-3.0000,-2631.0000,-0.5943,-0.5017,-0.6080,0.1593,114.2700,-74.1700,-82.2600,7.4300,-3.2400,20.3000,0.0000,0.0000,-0.0000,1002.0000,1765.0000,1500.0000,2000.0000
175176.8140,2.0000,2000.0000,2000.0000,1734.0000,-91.0000,95.0000,-21.0000,-365.0000,-495.0000,-4388.0000,-0.5851,-0.5016,-0.6176,0.1570,114.4500,-74.2200,-81.8300,7.4500,-3.1800,20.6200,0.0000,0.0000,-0.0000,1002.0000,1765.0000,1500.0000,2000.0000
175193.5760,2.0000,2000.0000,2000.0000,1698.0000,-232.0000,95.0000,14.0000,-386.0000,-971.0000,-5410.0000,-0.5880,-0.4904,-0.6287,0.1361,114.6200,-74.2700,-81.3700,7.2900,-3.2400,20.8300,0.0000,0.0000,-0.0000,1158.0000,1685.0000,1500.0000,2000.0000
175210.4970,2.0000,2000.0000,2000.0000,1659.0000,-342.0000,100.0000,41.0000,-1206.0000,-828.0000,-5543.0000,-0.5996,-0.4708,-0.6393,0.1005,114.8100,-74.3200,-80.9000,6.9300,-3.2500,20.8800,0.0000,0.0000,-0.0000,1158.0000,1685.0000,1500.0000,2000.0000
175227.3860,2.0000,2000.0000,2000.0000,1659.0000,-418.0000,98.0000,50.0000,-847.0000,-216.0000,-5685.0000,-0.6169,-0.4429,-0.6483,0.0543,114.8100,-74.3200,-80.9000,6.9300,-3.2500,20.8800,0.0000,0.0000,-0.0000,1158.0000,1685.0000,1500.0000,2000.0000
175244.0990,2.0000,2000.0000,2000.0000,1659.0000,-470.0000,115.0000,48.0000,-1095.0000,322.0000,-5011.0000,-0.6348,-0.4085,-0.6559,0.0018,114.9800,-74.3700,-80.4500,6.5800,-3.2400,20.7500,0.0000,0.0000,-0.0000,1158.0000,1685.0000,1500.0000,2000.0000
175260.8640,2.0000,2000.0000,2000.0000,1659.0000,-489.0000,124.0000,40.0000,-1222.0000,587.0000,-4710.0000,-0.6509,-0.3683,-0.6616,-0.0538,115.1400,-74.4200,-80.0000,6.2900,-3.1700,20.5600,0.0000,0.0000,-0.0000,1158.0000,1685.0000,1500.0000,2000.0000
175277.9670,2.0000,2000.0000,2000.0000,1659.0000,-490.0000,141.0000,28.0000,-1143.0000,948.0000,-5008.0000,-0.6628,-0.3234,-0.6661,-0.1113,115.2700,-74.4600,-79.5800,6.0400,-3.0400,20.5000,0.0000,0.0000,-0.0000,1158.0000,1685.0000,1500.0000,2000.0000
175294.5680,2.0000,2000.0000,1000.0000,1396.0000,-488.0000,156.0000,2.0000,-546.0000,1450.0000,-4311.0000,-0.6700,-0.2759,-0.6692,-0.1650,115.4100,-74.5000,-79.1700,5.7800,-2.9600,20.4300,0.0000,0.0000,-0.0000,1938.0000,1179.0000,1500.0000,2000.0000
175311.2740,2.0000,2000.0000,1000.0000,1384.0000,-490.0000,174.0000,-39.0000,-601.0000,2116.0000,-4659.0000,-0.6731,-0.2227,-0.6714,-0.2158,115.4100,-74.5000,-79.1700,5.7800,-2.9600,20.4300,0.0000,0.0000,-0.0000,1938.0000,1179.0000,1500.0000,2000.0000
175328.0380,2.0000,2000.0000,1000.0000,1384.0000,-485.0000,182.0000,-83.0000,-1018.0000,2333.0000,-5990.0000,-0.6724,-0.1635,-0.6729,-0.2615,115.5600,-74.5700,-78.7200,5.5200,-3.1800,20.4000,0.0000,0.0000,-0.0000,1938.0000,1179.0000,1500.0000,2000.0000
175344.9970,2.0000,2000.0000,1000.0000,1384.0000,-437.0000,195.0000,-110.0000,-748.0000,1579.0000,-7813.0000,-0.6674,-0.1010,-0.6739,-0.3005,115.7000,-74.6300,-78.2800,5.1500,-3.3100,20.4100,0.0000,0.0000,-0.0000,1938.0000,1179.0000,1500.0000,2000.0000
175361.8640,2.0000,2000.0000,1000.0000,1384.0000,-332.0000,188.0000,-134.0000,-665.0000,1096.0000,-10259.0000,-0.6584,-0.0430,-0.6762,-0.3279,115.8200,-74.6900,-77.8600,4.6500,-3.2500,20.4700,0.0000,0.0000,-0.0000,1938.0000,1179.0000,1500.0000,2000.0000
