span_id,timestamp_ms,tick_counter,target_x_0,target_x_1,target_x_2,target_x_3,target_x_4,target_x_5,target_y_0,target_y_1,target_y_2,target_y_3,target_y_4,target_y_5,target_z_0,target_z_1,target_z_2,target_z_3,target_z_4,target_z_5,dist_0,dist_1,dist_2,dist_3,dist_4,dist_5,closing_rate,quat_w,quat_x,quat_y,quat_z,airspeed,gyro_p,gyro_q,gyro_r,accel_x,accel_y,accel_z,specific_energy,boundary_closure_rate,dist_to_boundary,inward_body_x,inward_body_y,inward_body_z,score_grad_x,score_grad_y,score_grad_z,out_pitch,out_roll,out_throttle,pos_n,pos_e,pos_d,vel_n,vel_e,vel_d,rabbit_n,rabbit_e,rabbit_d,recurrent_reset,path_index,rc_roll,rc_pitch,rc_throttle,state_valid
1,152498,0,0.8131656849879452,0.8131656849879452,0.8131656849879452,0.8131656849879452,0.8131656849879452,0.9901425214392529,-0.39698477126377146,-0.39698477126377146,-0.39698477126377146,-0.39698477126377146,-0.39698477126377146,-0.09408856471449935,0.42564165166173284,0.42564165166173284,0.42564165166173284,0.42564165166173284,0.42564165166173284,0.10361033967101047,6.238525390625,6.238525390625,6.238525390625,6.238525390625,6.238525390625,0.023193359375,7.999755859375,-0.03595080416272469,-0.06024353770561846,-0.19705801568651388,0.977874080629902,1.423828125,-0.007568359375,-0.0048828125,0.0087890625,0.03515625,0.0191650390625,-0.1083984375,0.327392578125,0.0,0.9983214819788202,0.0,0.0,0.0,0.04199346903897214,-0.003997924741355632,0.004394665364543596,-0.989135410626545,-0.4205755790887173,-1.0,0.0,0.0,0.0,-18.28125,-0.421875,-2.87109375,-0.625,0.0,0.0,1,0,1289,1994,1000,1
1,152540,1,0.8131656849879452,0.8131656849879452,0.8131656849879452,0.8131656849879452,0.9901425214392529,0.8546098208563494,-0.39698477126377146,-0.39698477126377146,-0.39698477126377146,-0.39698477126377146,-0.09408856471449935,-0.15912350840784936,0.42564165166173284,0.42564165166173284,0.42564165166173284,0.42564165166173284,0.10361033967101047,0.4943082979827265,6.238525390625,6.238525390625,6.238525390625,6.238525390625,0.023193359375,0.013427734375,0.311767578125,-0.03405865657521287,-0.0608233893856624,-0.20020142216254158,0.9772637104403821,1.44677734375,-0.00634765625,0.013427734375,-0.016845703125,0.0318603515625,0.0257568359375,-0.10791015625,0.332275390625,1.4287109375,0.9981688894314402,-0.9882503738517411,0.12216559343241676,-0.09173863948484756,-0.5099642933439131,-0.13312173833429974,0.8462172307504502,-0.9600512710959197,-0.6770836512344737,-0.7978453932309946,-0.875,0.0,-0.125,-18.58984375,-0.19140625,-2.859375,-1.1875,0.0,0.0,0,0,1161,1980,1101,1
1,152580,2,0.8131656849879452,0.8131656849879452,0.8131656849879452,0.9901425214392529,0.8546098208563494,0.08450575273903622,-0.39698477126377146,-0.39698477126377146,-0.39698477126377146,-0.09408856471449935,-0.15912350840784936,-0.20896023438215278,0.42564165166173284,0.42564165166173284,0.42564165166173284,0.10361033967101047,0.4943082979827265,0.9742728965117343,6.238525390625,6.238525390625,6.238525390625,0.023193359375,0.013427734375,0.01123046875,0.072509765625,-0.03076265755180517,-0.060884426404614396,-0.20471816156498918,0.9764397106845302,1.464599609375,-0.031982421875,-0.013671875,-0.03515625,0.031005859375,0.0267333984375,-0.093505859375,0.3363037109375,1.447509765625,0.9979857783745841,-0.988891262550737,0.11648915066988129,-0.0923184911648915,-0.7829218420972319,-0.06643879512924589,0.5554368724631489,-1.0,0.28382213812677387,-0.5830561235389263,-1.75,0.0625,-0.25,-18.828125,-0.01953125,-2.8203125,-1.8125,0.0,0.0,0,0,1641,2000,1208,1
1,152631,3,0.8131656849879452,0.8131656849879452,0.8131656849879452,0.8546098208563494,0.08450575273903622,-0.8822901089510788,-0.39698477126377146,-0.39698477126377146,-0.39698477126377146,-0.15912350840784936,-0.20896023438215278,-0.03607287820062868,0.42564165166173284,0.42564165166173284,0.42564165166173284,0.4943082979827265,0.9742728965117343,0.4693136387218848,6.238525390625,6.238525390625,6.238525390625,0.013427734375,0.01123046875,0.033203125,-0.716064453125,-0.02362132633442183,-0.061342204046754355,-0.20590838343455306,0.9763481551561022,1.493896484375,-0.01708984375,-0.00634765625,-0.05126953125,0.0333251953125,0.03759765625,-0.108642578125,0.3427734375,1.47802734375,0.9976805932798242,-0.9898068178350169,0.10660115359965819,-0.09436323129978332,-0.018189031647694327,-0.0007324442274239326,0.00967436750389111,-0.999603259376812,-0.1804254280220954,-0.9962462233344523,-3.125,0.125,-0.5,-19.21875,0.2109375,-2.76953125,-2.375,0.0,0.0,0,0,1409,1999,1001,1
1,152682,4,0.8131656849879452,0.8131656849879452,0.9901425214392529,0.08450575273903622,-0.8822901089510788,-0.9002960295419171,-0.39698477126377146,-0.39698477126377146,-0.09408856471449935,-0.20896023438215278,-0.03607287820062868,-0.03436384166997284,0.42564165166173284,0.42564165166173284,0.10361033967101047,0.9742728965117343,0.4693136387218848,0.4338816492202521,6.238525390625,6.238525390625,0.023193359375,0.01123046875,0.033203125,0.045166015625,-0.38720703125,-0.01272621845149083,-0.06079287087618641,-0.206671346171453,0.9764397106845302,1.508056640625,0.05419921875,-0.001708984375,-0.054443359375,0.0250244140625,0.01953125,-0.0997314453125,0.34619140625,1.4927978515625,0.9974669637134922,-0.9913937803277688,0.08883938108462783,-0.09613330484939116,-0.019928586687826166,-0.0011597033600878933,0.012359996337778864,-0.9735709707937864,-0.7413251136814478,-0.9918820764793848,-4.0,0.1875,-0.625,-19.41015625,0.33984375,-2.73046875,-3.0,0.0,0.0,0,0,1129,1986,1004,1
1,152736,5,0.8131656849879452,0.8131656849879452,0.8546098208563494,-0.8822901089510788,-0.9002960295419171,-0.9471419415875728,-0.39698477126377146,-0.39698477126377146,-0.15912350840784936,-0.03607287820062868,-0.03436384166997284,-0.02240058595538194,0.42564165166173284,0.42564165166173284,0.4943082979827265,0.4693136387218848,0.4338816492202521,0.32007812738425856,6.238525390625,6.238525390625,0.013427734375,0.033203125,0.045166015625,0.075927734375,-0.995361328125,-0.0021057771538438063,-0.05948057496871853,-0.20480971709341717,0.9769890438550981,1.53271484375,0.050537109375,0.0185546875,-0.04443359375,0.0267333984375,0.016845703125,-0.115234375,0.35205078125,1.51904296875,0.9970702230903042,-0.9927671132541886,0.07098605304116946,-0.0966826380199591,-0.03353984191412091,-0.000793481246375927,0.011352885525070956,-0.9870296334727012,-0.9159520249031037,-0.8656575212866604,-5.375,0.25,-0.8125,-19.73828125,0.62109375,-2.6484375,-3.625,0.0,0.0,0,0,1042,1993,1067,1
1,152783,6,0.8131656849879452,0.8131656849879452,0.08450575273903622,-0.9002960295419171,-0.9471419415875728,-0.9465010528885769,-0.39698477126377146,-0.39698477126377146,-0.20896023438215278,-0.03436384166997284,-0.02240058595538194,-0.022431104464857937,0.42564165166173284,0.42564165166173284,0.9742728965117343,0.4338816492202521,0.32007812738425856,0.3219092379528184,6.238525390625,6.238525390625,0.01123046875,0.045166015625,0.075927734375,0.088623046875,-0.416748046875,0.004913480025635548,-0.058229316080202646,-0.20355845820490126,0.9773247474593341,1.544677734375,0.005126953125,0.014892578125,-0.05908203125,0.021728515625,0.0145263671875,-0.1051025390625,0.3551025390625,1.5311279296875,0.9967650379955443,-0.9935911130100405,0.06076235236671041,-0.09543137913144321,-0.03381450849940489,-0.0009155552842799158,0.013031403546250802,-0.9948423718985565,-0.7366252632221443,-0.9661854915005951,-6.25,0.3125,-0.9375,-19.890625,0.78125,-2.640625,-4.1875,0.0,0.0,0,0,1131,1997,1016,1
1,152834,7,0.8131656849879452,0.8131656849879452,-0.8822901089510788,-0.9471419415875728,-0.9465010528885769,-0.9610278633991516,-0.39698477126377146,-0.39698477126377146,-0.03607287820062868,-0.02240058595538194,-0.022431104464857937,-0.01467940305795465,0.42564165166173284,0.42564165166173284,0.4693136387218848,0.32007812738425856,0.3219092379528184,0.2760399182103946,6.238525390625,6.238525390625,0.033203125,0.075927734375,0.088623046875,0.12060546875,-1.034912109375,0.00924710837122715,-0.05731376079592273,-0.2056947538682211,0.9768974883266701,1.563720703125,0.006591796875,0.004638671875,-0.040771484375,0.0267333984375,0.0162353515625,-0.120849609375,0.3599853515625,1.55126953125,0.9962462233344523,-0.9940488906521805,0.056581316568498796,-0.09320352793969543,-0.0347300637836848,-0.0005188146610919523,0.009979552598651083,-0.9161046174504838,-0.9289529099398786,-0.9168675801873837,-7.6875,0.4375,-1.125,-20.140625,1.03125,-2.5703125,-4.8125,0.0,0.0,0,0,1035,1958,1041,1
1,152885,8,0.8131656849879452,0.9901425214392529,-0.9002960295419171,-0.9465010528885769,-0.9610278633991516,-0.9584337900936918,-0.39698477126377146,-0.09408856471449935,-0.03436384166997284,-0.022431104464857937,-0.01467940305795465,-0.011719107638782922,0.42564165166173284,0.10361033967101047,0.4338816492202521,0.3219092379528184,0.2760399182103946,0.2850428785058138,6.238525390625,0.023193359375,0.045166015625,0.088623046875,0.12060546875,0.13330078125,-0.41845703125,0.010711996826075015,-0.05572679830317087,-0.20816675313577684,0.9764397106845302,1.572021484375,0.021484375,0.005126953125,-0.00341796875,0.0240478515625,0.0093994140625,-0.1075439453125,0.3624267578125,1.5596923828125,0.9959105197302164,-0.9944151127658926,0.05642872402111881,-0.0890224921414838,-0.03378398998992889,-0.0004577776421399579,0.010925626392406995,0.6346018860438856,0.6393932920316172,0.42350535599841305,-8.5625,0.5,-1.25,-20.23828125,1.19921875,-2.55078125,-5.375,0.0,0.0,0,0,1819,1182,1711,1
1,152939,9,0.8131656849879452,0.8546098208563494,-0.9471419415875728,-0.9610278633991516,-0.9584337900936918,-0.9645680104983673,-0.39698477126377146,-0.15912350840784936,-0.02240058595538194,-0.01467940305795465,-0.011719107638782922,0.00466933194982757,0.42564165166173284,0.4943082979827265,0.32007812738425856,0.2760399182103946,0.2850428785058138,0.2638325144199957,6.238525390625,0.013427734375,0.075927734375,0.12060546875,0.13330078125,0.1650390625,-1.02978515625,0.009735404522843105,-0.05413983581041902,-0.20838038270210882,0.9765007477034822,1.58740234375,-0.017822265625,0.005126953125,-0.00146484375,0.022216796875,0.0048828125,-0.091552734375,0.3665771484375,1.576171875,0.9952696310312205,-0.9945371868037965,0.06280709250160223,-0.08322397534104434,-0.028748435926389357,0.00015259254737998596,0.007873775444807276,0.868953520310068,0.5042878505813776,0.9990234076967681,-10.0,0.625,-1.4375,-20.44140625,1.4296875,-2.4609375,-6.0,0.0,0.0,0,0,1752,1065,1999,1
1,152986,10,0.8131656849879452,0.08450575273903622,-0.9465010528885769,-0.9584337900936918,-0.9645680104983673,-0.9621570482497634,-0.39698477126377146,-0.20896023438215278,-0.022431104464857937,-0.011719107638782922,0.00466933194982757,0.015076143681142613,0.42564165166173284,0.9742728965117343,0.3219092379528184,0.2850428785058138,0.2638325144199957,0.27204199346903896,6.238525390625,0.01123046875,0.088623046875,0.13330078125,0.1650390625,0.177978515625,-0.416259765625,0.007141331217383343,-0.05319376201666311,-0.20999786370433668,0.9762260811181982,1.59326171875,-0.0419921875,-0.02734375,-0.008056640625,0.0225830078125,0.0157470703125,-0.08935546875,0.3685302734375,1.5830078125,0.9947813348796045,-0.9944151127658926,0.07016205328531755,-0.07885982848597675,-0.027649769585253458,0.0004272591326639607,0.008331553086947234,0.8013550218207343,0.8966948454237496,0.9523606067079684,-10.875,0.75,-1.5625,-20.51953125,1.55859375,-2.3515625,-6.625,0.0,0.0,0,0,1948,1099,1976,1
1,153037,11,0.8131656849879452,-0.8822901089510788,-0.9610278633991516,-0.9645680104983673,-0.9621570482497634,-0.9653004547257912,-0.39698477126377146,-0.03607287820062868,-0.01467940305795465,0.00466933194982757,0.015076143681142613,0.029816583758049256,0.42564165166173284,0.4693136387218848,0.2760399182103946,0.2638325144199957,0.27204199346903896,0.25940733054597614,6.238525390625,0.033203125,0.12060546875,0.1650390625,0.177978515625,0.209716796875,-1.034912109375,0.00466933194982757,-0.05203405865657521,-0.2098147526474807,0.9763481551561022,1.6044921875,-0.039794921875,-0.02294921875,-0.011962890625,0.02490234375,0.02392578125,-0.09619140625,0.3719482421875,1.595458984375,0.9939573351237525,-0.9941709646900846,0.07855464339121677,-0.07376323740348521,-0.021820734275337993,0.0006714072084719382,0.005859553819391461,0.8406628620258186,0.7417828913235878,0.9964903714102603,-12.3125,0.875,-1.75,-20.671875,1.73046875,-2.2109375,-7.1875,0.0,0.0,0,0,1870,1079,1998,1
1,153088,12,0.8131656849879452,-0.9002960295419171,-0.9584337900936918,-0.9621570482497634,-0.9653004547257912,-0.9627063814203314,-0.39698477126377146,-0.03436384166997284,-0.011719107638782922,0.015076143681142613,0.029816583758049256,0.03775139622180853,0.42564165166173284,0.4338816492202521,0.2850428785058138,0.27204199346903896,0.25940733054597614,0.26792199468977934,6.238525390625,0.045166015625,0.13330078125,0.177978515625,0.209716796875,0.22216796875,-0.403076171875,0.0038758507034516434,-0.050141911069063384,-0.20938749351481672,0.9765312662129582,1.6083984375,-0.013916015625,-0.025634765625,-0.009033203125,0.02099609375,0.025634765625,-0.0938720703125,0.3734130859375,1.599853515625,0.9933774834437086,-0.9942930387279886,0.08172856837672048,-0.06869716483046968,-0.020935697500534076,0.0008545182653279214,0.006134220404675436,0.7794732505264443,0.8789025543992431,0.9661549729911191,-13.1875,1.0,-1.875,-20.71875,1.8203125,-2.1484375,-7.8125,0.0,0.0,0,0,1939,1110,1983,1
1,153138,13,0.8131656849879452,-0.9471419415875728,-0.9645680104983673,-0.9653004547257912,-0.9627063814203314,-0.9652699362163152,-0.39698477126377146,-0.02240058595538194,0.00466933194982757,0.029816583758049256,0.03775139622180853,0.045075838496047856,0.42564165166173284,0.32007812738425856,0.2638325144199957,0.25940733054597614,0.26792199468977934,0.25730155339213234,6.238525390625,0.075927734375,0.1650390625,0.209716796875,0.22216796875,0.25341796875,-1.01953125,0.005096591082491531,-0.04849391155735954,-0.2077089754936369,0.9769890438550981,1.61767578125,-0.031494140625,-0.01806640625,-0.009521484375,0.0228271484375,0.0230712890625,-0.0887451171875,0.3763427734375,1.6099853515625,0.9923703726310007,-0.9945371868037965,0.08206427198095645,-0.06466872157963804,-0.01620532853175451,0.0007629627368999298,0.004333628345591601,0.8306527909176916,0.8073061311685538,0.9946592608417005,-14.5625,1.125,-2.0,-20.83984375,1.9609375,-2.0390625,-8.375,0.0,0.0,0,0,1903,1084,1997,1
1,153191,14,0.8131656849879452,-0.9465010528885769,-0.9621570482497634,-0.9627063814203314,-0.9652699362163152,-0.9637440107425154,-0.39698477126377146,-0.022431104464857937,0.015076143681142613,0.03775139622180853,0.045075838496047856,0.04632709738456374,0.42564165166173284,0.3219092379528184,0.27204199346903896,0.26792199468977934,0.25730155339213234,0.26273384807885986,6.238525390625,0.088623046875,0.177978515625,0.22216796875,0.25341796875,0.265869140625,-0.405517578125,0.007812738425855281,-0.04754783776360363,-0.20719016083254493,0.9771111178930021,1.6201171875,-0.01123046875,-0.0166015625,-0.020263671875,0.0257568359375,0.025390625,-0.0941162109375,0.37744140625,1.61279296875,0.9916379284035768,-0.9949034089175085,0.07867671742912076,-0.0629902035584582,-0.015564439832758568,0.0007629627368999298,0.004425183874019593,0.7863399151585436,0.8719443342387158,0.9739677114169744,-15.4375,1.25,-2.125,-20.87109375,2.0390625,-1.94921875,-9.0,0.0,0.0,0,0,1935,1106,1986,1
1,153230,15,0.8131656849879452,-0.9610278633991516,-0.9653004547257912,-0.9652699362163152,-0.9637440107425154,-0.9636524552140874,-0.39698477126377146,-0.01467940305795465,0.029816583758049256,0.045075838496047856,0.04632709738456374,0.046235541856135744,0.42564165166173284,0.2760399182103946,0.25940733054597614,0.25730155339213234,0.26273384807885986,0.2631611072115238,6.238525390625,0.12060546875,0.209716796875,0.25341796875,0.265869140625,0.27978515625,-0.448974609375,0.011108737449262978,-0.04727317117831965,-0.20725119785149693,0.9770805993835261,1.62548828125,0.022705078125,0.02734375,-0.04248046875,0.0213623046875,0.0177001953125,-0.1026611328125,0.3792724609375,1.6187744140625,0.9907834101382489,-0.9952696310312205,0.0740379039887692,-0.0629902035584582,-0.014831995605334635,0.0007629627368999298,0.0043641468550675985,0.8095645008697775,0.8449659718619342,0.9899899288918729,-16.375,1.375,-2.25,-20.94140625,2.12890625,-1.87890625,-9.625,0.0,0.0,0,0,1922,1095,1994,1
1,153281,16,0.9901425214392529,-0.9584337900936918,-0.9627063814203314,-0.9637440107425154,-0.9636524552140874,-0.966704306161687,-0.09408856471449935,-0.011719107638782922,0.03775139622180853,0.04632709738456374,0.046235541856135744,0.04477065340128788,0.10361033967101047,0.2850428785058138,0.26792199468977934,0.26273384807885986,0.2631611072115238,0.2519302957243568,0.023193359375,0.13330078125,0.22216796875,0.265869140625,0.27978515625,0.309326171875,-0.96142578125,0.01654103213599048,-0.04739524521622364,-0.20480971709341717,0.97750785851619,1.628662109375,0.10302734375,0.041259765625,-0.02685546875,0.0361328125,0.0198974609375,-0.1021728515625,0.380859375,1.622314453125,0.9894405957213049,-0.9956968901638844,0.0663472396008179,-0.06451612903225806,-0.011627552110354931,0.0005493331705679495,0.003143406476027711,-0.5121616260261849,0.6920377208777123,-0.9090243232520524,-17.75,1.5625,-2.375,-20.96875,2.2890625,-1.8203125,-10.1875,0.0,0.0,0,0,1846,1756,1045,1
1,153342,17,0.8546098208563494,-0.9645680104983673,-0.9652699362163152,-0.9636524552140874,-0.966704306161687,-0.97750785851619,-0.15912350840784936,0.00466933194982757,0.045075838496047856,0.046235541856135744,0.04477065340128788,0.08636738181707206,0.4943082979827265,0.2638325144199957,0.25730155339213234,0.2631611072115238,0.2519302957243568,0.1924802392651143,0.013427734375,0.1650390625,0.25341796875,0.27978515625,0.309326171875,0.340087890625,-0.99658203125,0.01901303140354625,-0.06872768333994568,-0.14758751182592242,0.9864803003021333,1.63916015625,0.658203125,0.245849609375,0.119384765625,0.0284423828125,0.0048828125,-0.1297607421875,0.3839111328125,1.6339111328125,0.9878536332285531,-0.9910275582140569,0.06857509079256568,-0.11471907712027345,-0.010071108127079073,0.000946073793755913,0.0021362956633198035,0.6465651417584766,-0.8771629993591114,0.923947874385815,-19.125,1.75,-2.5,-21.109375,2.41015625,-1.640625,-10.8125,0.0,0.0,0,0,1061,1176,1961,1
1,153382,18,0.08450575273903622,-0.9621570482497634,-0.9637440107425154,-0.966704306161687,-0.97750785851619,-0.9807428205206458,-0.20896023438215278,0.015076143681142613,0.04632709738456374,0.04477065340128788,0.08636738181707206,0.14331492049928282,0.9742728965117343,0.27204199346903896,0.26273384807885986,0.2519302957243568,0.1924802392651143,0.1327249977111118,0.01123046875,0.177978515625,0.265869140625,0.309326171875,0.340087890625,0.352294921875,-0.401611328125,0.016449476607562488,-0.08929715872676779,-0.06152531510361034,0.9939573351237525,1.633544921875,0.901123046875,-0.08642578125,0.048095703125,-0.0113525390625,0.033935546875,-0.3756103515625,0.3834228515625,1.6263427734375,0.9867854853968933,-0.9833674123355816,0.06930753501998962,-0.16785180211798456,-0.00891140476699118,0.0013428144169438765,0.001281777397991882,-0.988494521927549,0.532303842280343,-1.0,-20.0,1.8125,-2.625,-21.0,2.51953125,-1.8984375,-11.375,0.0,0.0,0,0,1766,1994,1000,1
1,153433,19,-0.8822901089510788,-0.9653004547257912,-0.9636524552140874,-0.97750785851619,-0.9807428205206458,-0.9704275643177587,-0.03607287820062868,0.029816583758049256,0.046235541856135744,0.08636738181707206,0.14331492049928282,0.1868953520310068,0.4693136387218848,0.25940733054597614,0.2631611072115238,0.1924802392651143,0.1327249977111118,0.15286721396526995,0.033203125,0.209716796875,0.27978515625,0.340087890625,0.352294921875,0.3662109375,-0.447021484375,0.023743400372325817,-0.05694753868221076,0.057802056947538684,0.9964293343913083,1.622802734375,0.286865234375,-0.382568359375,-0.01220703125,0.02734375,0.0128173828125,-0.14404296875,0.382080078125,1.609375,0.9857783745841853,-0.9918210394604328,0.039368877224036376,-0.12131107516708883,-0.008453627124851223,0.0017090365306558428,0.001434369945371868,-0.9953917050691244,-0.6028626361888485,-1.0,-20.9375,2.0,-2.6875,-20.78125,2.48828125,-2.6484375,-12.0,0.0,0.0,0,0,1198,1997,1000,1
1,153484,20,-0.9002960295419171,-0.9627063814203314,-0.966704306161687,-0.9807428205206458,-0.9704275643177587,-0.9492477187414167,-0.03436384166997284,0.03775139622180853,0.04477065340128788,0.14331492049928282,0.1868953520310068,0.17368083742790003,0.4338816492202521,0.26792199468977934,0.2519302957243568,0.1327249977111118,0.15286721396526995,0.26227607043671985,0.045166015625,0.22216796875,0.309326171875,0.352294921875,0.3662109375,0.39501953125,-0.936767578125,0.042237617114780114,0.005249183629871517,0.08078249458296456,0.9958189642017884,1.619140625,-0.008544921875,-0.549560546875,-0.1533203125,-0.0074462890625,0.01220703125,0.1412353515625,0.3828125,1.6090087890625,0.9836420789208655,-0.999938962981048,0.011871700186162909,0.0017700735496078372,-0.006622516556291391,0.0012512588885158849,0.0018616290780358287,-0.9688100833155309,-0.152165288247322,-1.0,-22.1875,2.125,-2.9375,-20.78125,2.4296875,-2.3203125,-12.625,0.0,0.0,0,0,1423,1984,1000,1
1,153535,21,-0.9471419415875728,-0.9652699362163152,-0.97750785851619,-0.9704275643177587,-0.9492477187414167,-0.8888515884884183,-0.02240058595538194,0.045075838496047856,0.08636738181707206,0.1868953520310068,0.17368083742790003,0.13238929410687583,0.32007812738425856,0.25730155339213234,0.1924802392651143,0.15286721396526995,0.26227607043671985,0.43867305520798366,0.075927734375,0.25341796875,0.340087890625,0.3662109375,0.39501953125,0.408203125,-0.427734375,0.07031464583269753,0.09543137913144321,0.0640888698995941,0.9908749656666769,1.609375,-0.189453125,-0.645751953125,-0.131591796875,-0.0391845703125,-0.0438232421875,0.39208984375,0.3817138671875,1.6044921875,0.9818109683523056,-0.9820856349375896,-0.030060731833857234,0.1860408337656789,-0.0059511093478194525,0.000946073793755913,0.003021332438123722,-0.5841547898800623,0.3738517410809656,-1.0,-23.125,2.25,-3.0,-20.7109375,2.53125,-1.55859375,-13.1875,0.0,0.0,0,0,1686,1792,1000,1
1,153585,22,-0.9465010528885769,-0.9637440107425154,-0.9807428205206458,-0.9492477187414167,-0.8888515884884183,-0.8018433179723502,-0.022431104464857937,0.04632709738456374,0.14331492049928282,0.17368083742790003,0.13238929410687583,0.0793786431470687,0.3219092379528184,0.26273384807885986,0.1327249977111118,0.26227607043671985,0.43867305520798366,0.5922421948912016,0.088623046875,0.265869140625,0.352294921875,0.39501953125,0.408203125,0.436279296875,-0.916259765625,0.09335612048707541,0.17865535447248757,0.030274361400189215,0.979003265480514,1.557373046875,0.010498046875,-0.53271484375,-0.065185546875,-0.0582275390625,-0.0413818359375,0.3402099609375,0.373291015625,1.5562744140625,0.979094821008942,-0.9335612048707541,-0.07229834894863735,0.3510544145023957,-0.0043641468550675985,0.0004577776421399579,0.0032654805139316996,-0.7841731009857479,0.3484603411969359,-1.0,-24.375,2.5,-3.25,-20.05078125,2.80859375,0.171875,-13.8125,0.0,0.0,0,0,1674,1892,1000,1
1,153646,23,-0.9610278633991516,-0.9636524552140874,-0.9704275643177587,-0.8888515884884183,-0.8018433179723502,-0.716696676534318,-0.01467940305795465,0.046235541856135744,0.1868953520310068,0.13238929410687583,0.0793786431470687,0.12384411145359661,0.2760399182103946,0.2631611072115238,0.15286721396526995,0.43867305520798366,0.5922421948912016,0.6863002410962249,0.12060546875,0.27978515625,0.3662109375,0.408203125,0.436279296875,0.462646484375,-0.856201171875,0.08941923276467177,0.24930570390942106,0.055085909604174935,0.9627063814203314,1.49853515625,0.481201171875,-0.09912109375,0.0595703125,-0.0625,-0.045166015625,0.404541015625,0.3634033203125,1.4893798828125,0.9768364513077181,-0.8757591479232154,-0.042603839228492084,0.48088015381328775,-0.003509628589739677,0.000640888698995941,0.0033875545518356883,-0.8859523300881985,0.49626148258919034,-1.0,-25.625,2.6875,-3.375,-19.16015625,2.94140625,1.94140625,-14.375,0.0,0.0,0,0,1748,1942,1000,1
1,153687,24,-0.9584337900936918,-0.966704306161687,-0.9492477187414167,-0.8018433179723502,-0.716696676534318,-0.706808679464095,-0.011719107638782922,0.04477065340128788,0.17368083742790003,0.0793786431470687,0.12384411145359661,0.2251655629139073,0.2850428785058138,0.2519302957243568,0.26227607043671985,0.5922421948912016,0.6863002410962249,0.6706137272255623,0.13330078125,0.309326171875,0.39501953125,0.436279296875,0.462646484375,0.470458984375,-0.257080078125,0.06604205450605792,0.260658589434492,0.11066011535996582,0.956785790581988,1.466064453125,0.54931640625,0.0498046875,0.0693359375,-0.069091796875,-0.025146484375,0.2352294921875,0.35791015625,1.4454345703125,0.9757683034760583,-0.870021668141728,0.033570360423596915,0.49186681722464676,-0.003173924985503708,0.0010376293221839045,0.0030518509475997192,-0.9574571977904599,0.42283394878994107,-1.0,-26.4375,2.8125,-3.375,-18.5703125,3.0703125,2.98828125,-15.0,0.0,0.0,0,0,1711,1978,1000,1
1,153737,25,-0.9645680104983673,-0.97750785851619,-0.8888515884884183,-0.716696676534318,-0.706808679464095,-0.7149876400036622,0.00466933194982757,0.08636738181707206,0.13238929410687583,0.12384411145359661,0.2251655629139073,0.35358745078890347,0.2638325144199957,0.1924802392651143,0.43867305520798366,0.6863002410962249,0.6706137272255623,0.6031373027741325,0.1650390625,0.340087890625,0.408203125,0.462646484375,0.470458984375,0.478515625,-0.262451171875,0.03436384166997284,0.2589190343943602,0.19162572099978636,0.9460737937559129,1.458251953125,0.669921875,0.100341796875,0.01416015625,-0.0618896484375,-0.012451171875,0.12255859375,0.3565673828125,1.4278564453125,0.9744865260780663,-0.8762169255653554,0.13330484939115575,0.4631183812982574,-0.003204443494979705,0.0016479995117038484,0.00271614734336375,-0.9416791283913694,0.60917996765038,-1.0,-27.1875,2.9375,-3.375,-18.328125,3.1484375,3.671875,-15.625,0.0,0.0,0,0,1804,1970,1000,1
1,153787,26,-0.9621570482497634,-0.9807428205206458,-0.8018433179723502,-0.706808679464095,-0.7149876400036622,-0.727408673360393,0.015076143681142613,0.14331492049928282,0.0793786431470687,0.2251655629139073,0.35358745078890347,0.4553056428724021,0.27204199346903896,0.1327249977111118,0.5922421948912016,0.6706137272255623,0.6031373027741325,0.5133823664052247,0.177978515625,0.352294921875,0.436279296875,0.470458984375,0.478515625,0.4990234375,-0.662353515625,0.009582811975463118,0.2589495529038362,0.27695547349467453,0.9252906888027589,1.461181640625,0.541015625,-0.074462890625,-0.044189453125,-0.055419921875,-0.0020751953125,0.0560302734375,0.356689453125,1.4193115234375,0.9723197119052706,-0.8781701101718192,0.21817682424390392,0.42567217017120884,-0.0028077028717917417,0.0018005920590838343,0.0020142216254158147,-0.4913174840540788,0.5489974669637135,-1.0,-28.3125,3.125,-3.3125,-18.2109375,3.19921875,4.359375,-16.1875,0.0,0.0,0,0,1774,1745,1000,1
1,153838,27,-0.9653004547257912,-0.9704275643177587,-0.716696676534318,-0.7149876400036622,-0.727408673360393,-0.7306741538743248,0.029816583758049256,0.1868953520310068,0.12384411145359661,0.35358745078890347,0.4553056428724021,0.5127109591967528,0.25940733054597614,0.15286721396526995,0.6863002410962249,0.6031373027741325,0.5133823664052247,0.45078890346995454,0.209716796875,0.3662109375,0.462646484375,0.478515625,0.4990234375,0.506591796875,-0.246337890625,0.004821924497207556,0.26895962401196327,0.3499557481612598,0.8973052156132695,1.4677734375,0.48974609375,-0.1357421875,-0.14013671875,-0.053466796875,0.0,0.087158203125,0.357421875,1.418701171875,0.9705801568651387,-0.8719443342387158,0.26294747764519183,0.413037507248146,-0.0028077028717917417,0.0020142216254158147,0.00173955504013184,-0.7634205145420697,0.5363933225501266,-1.0,-29.125,3.25,-3.25,-18.19921875,3.19140625,4.76171875,-16.8125,0.0,0.0,0,0,1768,1881,1000,1
1,153889,28,-0.9627063814203314,-0.9492477187414167,-0.706808679464095,-0.727408673360393,-0.7306741538743248,-0.7450178533280435,0.03775139622180853,0.17368083742790003,0.2251655629139073,0.4553056428724021,0.5127109591967528,0.5402386547441023,0.26792199468977934,0.26227607043671985,0.6706137272255623,0.5133823664052247,0.45078890346995454,0.39127780999176,0.22216796875,0.39501953125,0.470458984375,0.4990234375,0.506591796875,0.52587890625,-0.630615234375,0.01120029297769097,0.2834864345225379,0.4266487624744407,0.858760338145085,1.4677734375,0.668212890625,-0.146728515625,-0.1611328125,-0.0562744140625,-0.01318359375,0.1756591796875,0.3565673828125,1.4041748046875,0.9682912686544389,-0.8633075960570086,0.29364909817804496,0.41044343394268623,-0.002533036286507767,0.0018616290780358287,0.0013122959074678793,-0.01892147587511826,0.6033509323404644,-1.0,-30.25,3.5,-3.125,-17.98828125,3.3515625,5.41015625,-17.375,0.0,0.0,0,0,1801,1509,1000,1
1,153929,29,-0.9652699362163152,-0.8888515884884183,-0.7149876400036622,-0.7306741538743248,-0.7450178533280435,-0.7615894039735099,0.045075838496047856,0.13238929410687583,0.35358745078890347,0.5127109591967528,0.5402386547441023,0.5662099063081759,0.25730155339213234,0.43867305520798366,0.6031373027741325,0.45078890346995454,0.39127780999176,0.315256202887051,0.25341796875,0.408203125,0.478515625,0.506591796875,0.52587890625,0.5322265625,-0.20556640625,0.011902218695638905,0.2904446546830653,0.5023041474654378,0.814386425366985,1.46044921875,0.685546875,-0.150146484375,-0.15185546875,-0.0570068359375,-0.0267333984375,0.1568603515625,0.3544921875,1.3837890625,0.9668568987090671,-0.8614764854884488,0.32798242133854183,0.3876766258735923,-0.0025940733054597613,0.0019531846064638203,0.0010681478316599017,0.4816431165501877,-0.1326639606921598,-1.0,-31.0,3.625,-3.0,-17.6796875,3.69921875,5.8515625,-18.0,0.0,0.0,0,0,1433,1259,1000,1
1,153980,30,-0.9637440107425154,-0.8018433179723502,-0.727408673360393,-0.7450178533280435,-0.7615894039735099,-0.7864619891964476,0.04632709738456374,0.0793786431470687,0.4553056428724021,0.5402386547441023,0.5662099063081759,0.5820490127262185,0.26273384807885986,0.5922421948912016,0.5133823664052247,0.39127780999176,0.315256202887051,0.206610309152501,0.265869140625,0.436279296875,0.4990234375,0.52587890625,0.5322265625,0.537109375,-0.15625,0.0065919980468153935,0.29206213568529316,0.5927915280617695,0.7505111850337229,1.45166015625,0.862548828125,0.039794921875,-0.101318359375,-0.0611572265625,-0.0426025390625,0.273681640625,0.3521728515625,1.363525390625,0.9653309732352672,-0.8655354472487564,0.36909085360271005,0.33854182561723684,-0.002533036286507767,0.001892147587511826,0.000640888698995941,0.12793359172338023,-0.018127994628742334,-1.0,-31.75,3.75,-2.875,-17.37109375,4.05078125,6.171875,-18.625,0.0,0.0,0,0,1490,1436,1000,1
1,154031,31,-0.9636524552140874,-0.716696676534318,-0.7306741538743248,-0.7615894039735099,-0.7864619891964476,-0.815668202764977,0.046235541856135744,0.12384411145359661,0.5127109591967528,0.5662099063081759,0.5820490127262185,0.5779290139469588,0.2631611072115238,0.6863002410962249,0.45078890346995454,0.315256202887051,0.206610309152501,0.025849177526169623,0.27978515625,0.462646484375,0.506591796875,0.5322265625,0.537109375,0.5556640625,-0.605712890625,-0.03442487868892483,0.2680745872371593,0.6773583178197576,0.684194463942381,1.435302734375,0.463134765625,0.33837890625,-0.034912109375,-0.05029296875,-0.05615234375,0.179931640625,0.347900390625,1.3299560546875,0.9625232703634754,-0.8861354411450545,0.4169743949705496,0.2022766808069094,-0.0024719992675557726,0.0017700735496078372,6.103701895199438e-05,0.5889156773583178,0.6716208380382702,-0.999816888943144,-32.8125,4.0625,-2.6875,-16.80859375,4.9609375,6.3984375,-19.1875,0.0,0.0,0,0,1835,1205,1000,1
1,154082,32,-0.966704306161687,-0.706808679464095,-0.7450178533280435,-0.7864619891964476,-0.815668202764977,-0.8202459791863765,0.04477065340128788,0.2251655629139073,0.5402386547441023,0.5820490127262185,0.5779290139469588,0.5589465010528886,0.2519302957243568,0.6706137272255623,0.39127780999176,0.206610309152501,0.025849177526169623,-0.12143314920499283,0.309326171875,0.470458984375,0.52587890625,0.537109375,0.5556640625,0.56005859375,-0.1435546875,-0.0805078279976806,0.2273323770867031,0.7035431989501633,0.6684469130527665,1.432861328125,0.051513671875,0.342041015625,-0.006103515625,-0.0440673828125,-0.0240478515625,-0.046875,0.346435546875,1.3216552734375,0.9602343821527757,-0.9033173619800409,0.423780022583697,0.06643879512924589,-0.002349925229651784,0.0016174810022278512,-0.0003662221137119663,-0.9497360148930326,0.22968230231635486,-1.0,-33.5,4.25,-2.5625,-16.671875,5.12890625,6.5390625,-19.8125,0.0,0.0,0,0,1614,1974,1000,1
1,154132,33,-0.97750785851619,-0.7149876400036622,-0.7615894039735099,-0.815668202764977,-0.8202459791863765,-0.8095950193792535,0.08636738181707206,0.35358745078890347,0.5662099063081759,0.5779290139469588,0.5589465010528886,0.5414593951231422,0.1924802392651143,0.6031373027741325,0.315256202887051,0.025849177526169623,-0.12143314920499283,-0.22675252540665913,0.340087890625,0.478515625,0.5322265625,0.5556640625,0.56005859375,0.578125,-0.587158203125,-0.12234870448927275,0.19391460921048617,0.7035431989501633,0.6726279488509781,1.430908203125,0.13818359375,0.354248046875,0.122802734375,-0.0504150390625,-0.0255126953125,-0.109375,0.34423828125,1.31005859375,0.957029938657796,-0.9013336588641011,0.43113498336741235,-0.04153569139683218,-0.002197332682271798,0.0014648884548478652,-0.000640888698995941,-0.8291573839533677,0.5599841303750724,-0.9944456312753686,-34.5625,4.5625,-2.25,-16.55859375,4.69921875,7.05078125,-20.375,0.0,0.0,0,0,1779,1914,1002,1
1,154183,34,-0.9807428205206458,-0.727408673360393,-0.7864619891964476,-0.8202459791863765,-0.8095950193792535,-0.7619861445966979,0.14331492049928282,0.4553056428724021,0.5820490127262185,0.5589465010528886,0.5414593951231422,0.533555101168859,0.1327249977111118,0.5133823664052247,0.206610309152501,-0.12143314920499283,-0.22675252540665913,-0.36701559495834224,0.352294921875,0.4990234375,0.537109375,0.56005859375,0.578125,0.58154296875,-0.107177734375,-0.1815546128727073,0.16803491317484054,0.7218543046357616,0.6463209936826685,1.42333984375,0.543701171875,0.145263671875,0.15771484375,-0.0386962890625,0.0028076171875,-0.3145751953125,0.341552734375,1.295654296875,0.9551377910702842,-0.8709067049165319,0.4587542344431898,-0.1763054292428358,-0.0019837031159398175,0.0013733329264198737,-0.0009765923032319102,-0.93420209356975,-0.75975829340495,-0.999816888943144,-35.1875,4.6875,-2.0625,-16.4296875,4.2109375,7.3984375,-21.0,0.0,0.0,0,0,1120,1967,1000,1
1,154236,35,-0.9704275643177587,-0.7306741538743248,-0.815668202764977,-0.8095950193792535,-0.7619861445966979,-0.7586291085543382,0.1868953520310068,0.5127109591967528,0.5779290139469588,0.5414593951231422,0.533555101168859,0.4694662312692648,0.15286721396526995,0.45078890346995454,0.025849177526169623,-0.22675252540665913,-0.36701559495834224,-0.4517654957731864,0.3662109375,0.506591796875,0.5556640625,0.578125,0.58154296875,0.59716796875,-0.511962890625,-0.206579790643025,0.17056794946134832,0.7736136967070528,0.5742362743003632,1.401611328125,0.742431640625,-0.331298828125,0.11279296875,-0.04736328125,-0.0010986328125,-0.244873046875,0.335205078125,1.2509765625,0.9538865321817682,-0.8522598956266976,0.4586016418958098,-0.25168614764854885,-0.0018616290780358287,0.0011597033600878933,-0.0011597033600878933,-0.8029419843134862,-0.4587847529526658,-0.9722586748863186,-36.1875,4.9375,-1.6875,-16.01171875,2.9609375,8.1796875,-21.625,-0.0625,0.0,0,0,1270,1901,1013,1
1,154286,36,-0.9492477187414167,-0.7450178533280435,-0.8202459791863765,-0.7619861445966979,-0.7586291085543382,-0.8167058320871609,0.17368083742790003,0.5402386547441023,0.5589465010528886,0.533555101168859,0.4694662312692648,0.39268166142765587,0.26227607043671985,0.39127780999176,-0.12143314920499283,-0.36701559495834224,-0.4517654957731864,-0.4228644672994171,0.39501953125,0.52587890625,0.56005859375,0.58154296875,0.59716796875,0.599853515625,-0.0830078125,-0.17566454054383984,0.20352793969542526,0.8347422711874752,0.4805444502090518,1.395751953125,0.234375,-0.663330078125,0.10302734375,-0.0455322265625,-0.03662109375,0.160888671875,0.332275390625,1.2274169921875,0.9531235694448683,-0.8706930753501999,0.4423963133640553,-0.21491134372997223,-0.0019531846064638203,0.0009155552842799158,-0.0010071108127079073,-0.8870815149388104,-0.5420697653126622,-0.9963988158818323,-36.875,5.0,-1.375,-15.73046875,2.73828125,8.62109375,-22.1875,-0.125,0.0,0,0,1228,1943,1001,1
1,154341,37,-0.8888515884884183,-0.7615894039735099,-0.8095950193792535,-0.7586291085543382,-0.8167058320871609,-0.8824732200079348,0.13238929410687583,0.5662099063081759,0.5414593951231422,0.4694662312692648,0.39268166142765587,0.38441114535966064,0.43867305520798366,0.315256202887051,-0.22675252540665913,-0.4517654957731864,-0.4228644672994171,-0.2710348826563311,0.408203125,0.5322265625,0.578125,0.59716796875,0.599853515625,0.615478515625,-0.510498046875,-0.10943937498092593,0.25458540604876856,0.8467360454115421,0.45414593951231425,1.381103515625,-0.166748046875,-0.390625,0.078857421875,-0.0540771484375,-0.0233154296875,0.4217529296875,0.3267822265625,1.2193603515625,0.9465010528885769,-0.8839991454817346,0.46250801110873746,-0.06796472060304574,-0.0020142216254158147,0.0008545182653279214,-0.000640888698995941,-0.7815179906613361,0.7363505966368603,-0.9773857844782861,-37.8125,5.25,-0.9375,-15.44921875,3.98828125,8.23046875,-22.8125,-0.1875,0.0,0,0,1868,1890,1011,1
1,154388,38,-0.8018433179723502,-0.7864619891964476,-0.7619861445966979,-0.8167058320871609,-0.8824732200079348,-0.8984344004638813,0.0793786431470687,0.5820490127262185,0.533555101168859,0.39268166142765587,0.38441114535966064,0.39707632679219945,0.5922421948912016,0.206610309152501,-0.36701559495834224,-0.4228644672994171,-0.2710348826563311,-0.18747520371105075,0.436279296875,0.537109375,0.58154296875,0.599853515625,0.615478515625,0.61865234375,-0.10498046875,-0.07574694051942503,0.2847376934110538,0.8352916043580432,0.4642170476393933,1.3583984375,-0.140869140625,-0.12890625,0.109619140625,-0.0618896484375,-0.0263671875,0.30859375,0.3214111328125,1.205322265625,0.9409161656544694,-0.8750572222052675,0.48353526413769954,0.02163762321848201,-0.0019531846064638203,0.0008545182653279214,-0.0004272591326639607,-0.9330729087191382,-0.5390484328745384,-0.99954222235786,-38.375,5.4375,-0.6875,-15.109375,5.05078125,7.62109375,-23.375,-0.3125,0.0,0,0,1230,1966,1000,1
1,154439,39,-0.716696676534318,-0.815668202764977,-0.7586291085543382,-0.8824732200079348,-0.8984344004638813,-0.8984649189733573,0.12384411145359661,0.5779290139469588,0.4694662312692648,0.38441114535966064,0.39707632679219945,0.39701528977324746,0.6863002410962249,0.025849177526169623,-0.4517654957731864,-0.2710348826563311,-0.18747520371105075,-0.18744468520157476,0.462646484375,0.5556640625,0.59716796875,0.615478515625,0.61865234375,0.635986328125,-0.560546875,-0.08105716116824854,0.29847102267525255,0.8310800500503556,0.4622333445234535,1.331787109375,0.36181640625,0.1357421875,0.11279296875,-0.0626220703125,-0.0103759765625,0.2340087890625,0.3148193359375,1.1737060546875,0.934690389721366,-0.8615375225074008,0.5073091830195013,0.020477919858394117,-0.0018616290780358287,0.0008239997558519242,-0.0004272591326639607,-0.8074892422254097,0.11239967040009766,-0.8776207770012513,-39.3125,5.8125,-0.375,-14.53125,6.05078125,7.2109375,-24.0,-0.375,0.0,0,0,1556,1903,1061,1
1,154481,40,-0.706808679464095,-0.8202459791863765,-0.8167058320871609,-0.8984344004638813,-0.8984649189733573,-0.8856471449934386,0.2251655629139073,0.5589465010528886,0.39268166142765587,0.39707632679219945,0.39701528977324746,0.3793450727866451,0.6706137272255623,-0.12143314920499283,-0.4228644672994171,-0.18747520371105075,-0.18744468520157476,-0.26786095767082735,0.470458984375,0.56005859375,0.599853515625,0.61865234375,0.635986328125,0.639892578125,-0.125244140625,-0.11780144657734916,0.2976470229194006,0.8455153050325022,0.4273506881923887,1.318115234375,0.321044921875,0.249267578125,0.10693359375,-0.054443359375,-0.0198974609375,0.147216796875,0.3111572265625,1.15478515625,0.9311502426221503,-0.8465224158452102,0.5284585100863674,-0.06445509201330607,-0.0017700735496078372,0.0007324442274239326,-0.0005493331705679495,-0.9291970580156865,-0.23294778283028658,-0.9993591113010041,-39.8125,6.0625,-0.125,-14.19921875,6.48046875,7.0703125,-24.5625,-0.5,0.0,0,0,1383,1964,1000,1
1,154531,41,-0.7149876400036622,-0.8095950193792535,-0.8824732200079348,-0.8984649189733573,-0.8856471449934386,-0.8661763359477523,0.35358745078890347,0.5414593951231422,0.38441114535966064,0.39701528977324746,0.3793450727866451,0.35358745078890347,0.6031373027741325,-0.22675252540665913,-0.2710348826563311,-0.18744468520157476,-0.26786095767082735,-0.3531907101657155,0.478515625,0.578125,0.615478515625,0.635986328125,0.639892578125,0.645751953125,-0.189697265625,-0.15808587908566546,0.29279457991271707,0.8546098208563494,0.3986022522659993,1.307373046875,0.18408203125,0.05224609375,0.068603515625,-0.0555419921875,0.0003662109375,0.0447998046875,0.3079833984375,1.1396484375,0.9276406140324106,-0.8271126438184759,0.5399029511398663,-0.15613269447920164,-0.0017090365306558428,0.0006714072084719382,-0.0007324442274239326,-0.7753532517471846,-0.6283455916013062,-0.9432966093935972,-40.375,6.3125,0.0625,-13.96875,6.55078125,7.12890625,-25.125,-0.6875,0.0,0,0,1185,1887,1028,1
1,154582,42,-0.727408673360393,-0.7619861445966979,-0.8984344004638813,-0.8856471449934386,-0.8661763359477523,-0.8676412244026002,0.4553056428724021,0.533555101168859,0.39707632679219945,0.3793450727866451,0.35358745078890347,0.31174657429731134,0.5133823664052247,-0.36701559495834224,-0.18747520371105075,-0.26786095767082735,-0.3531907101657155,-0.38731040375988035,0.4990234375,0.58154296875,0.61865234375,0.639892578125,0.645751953125,0.6630859375,-0.566162109375,-0.17474898525955992,0.28937650685140537,0.8627887813959166,0.3759575182348094,1.293701171875,0.122802734375,-0.004638671875,-0.003173828125,-0.0560302734375,-0.0057373046875,0.0643310546875,0.3033447265625,1.115478515625,0.923337504196295,-0.8206122013000885,0.5339823603015229,-0.20352793969542526,-0.0015564439832758568,0.0005493331705679495,-0.0007019257179479354,-0.9108554338206122,-0.7314676351207007,-0.9968871120334483,-41.1875,6.75,0.4375,-13.640625,6.4609375,7.421875,-25.75,-0.8125,0.0,0,0,1134,1955,1001,1
1,154643,43,-0.7306741538743248,-0.7586291085543382,-0.8984649189733573,-0.8661763359477523,-0.8676412244026002,-0.880886257515183,0.5127109591967528,0.4694662312692648,0.39701528977324746,0.35358745078890347,0.31174657429731134,0.2804956205938902,0.45078890346995454,-0.4517654957731864,-0.18744468520157476,-0.3531907101657155,-0.38731040375988035,-0.3812372203741569,0.506591796875,0.59716796875,0.635986328125,0.645751953125,0.6630859375,0.681884765625,-0.60693359375,-0.17096469008453627,0.29007843256935334,0.8636738181707205,0.3751029999694815,1.28369140625,-0.2724609375,-0.024169921875,0.0146484375,-0.05517578125,-0.0135498046875,0.1370849609375,0.2991943359375,1.100830078125,0.9170812097537157,-0.8246711630603961,0.5285805841242713,-0.20139164403210547,-0.0014954069643238624,0.0004577776421399579,-0.0006714072084719382,-0.7132175664540544,0.4279305398724326,-0.9273659474471266,-42.0,7.125,0.8125,-13.41015625,6.51953125,7.48828125,-26.3125,-1.0,0.0,0,0,1713,1856,1036,1
1,154684,44,-0.7450178533280435,-0.8167058320871609,-0.8856471449934386,-0.8676412244026002,-0.880886257515183,-0.8856471449934386,0.5402386547441023,0.39268166142765587,0.3793450727866451,0.31174657429731134,0.2804956205938902,0.2758262886440626,0.39127780999176,-0.4228644672994171,-0.26786095767082735,-0.38731040375988035,-0.3812372203741569,-0.3735465559862056,0.52587890625,0.599853515625,0.639892578125,0.6630859375,0.681884765625,0.688232421875,-0.212646484375,-0.16266365550706505,0.293527024140141,0.8511917477950377,0.4035767693105869,1.277099609375,-0.390869140625,0.037841796875,-0.001953125,-0.050537109375,-0.0135498046875,0.11083984375,0.29638671875,1.091796875,0.9128086184270761,-0.826349681081576,0.5358439893795587,-0.17319254127628406,-0.001434369945371868,0.0004272591326639607,-0.0006103701895199438,-0.9061861018707846,-0.6696981719412823,-0.9980468153935361,-42.5,7.375,1.0625,-13.26171875,6.6015625,7.5,-26.875,-1.1875,0.0,0,0,1165,1953,1000,1
1,154734,45,-0.7615894039735099,-0.8824732200079348,-0.8661763359477523,-0.880886257515183,-0.8856471449934386,-0.8905606250190741,0.5662099063081759,0.38441114535966064,0.35358745078890347,0.2804956205938902,0.2758262886440626,0.29007843256935334,0.315256202887051,-0.2710348826563311,-0.3531907101657155,-0.3812372203741569,-0.3735465559862056,-0.35038300729392374,0.5322265625,0.615478515625,0.645751953125,0.681884765625,0.688232421875,0.697021484375,-0.284423828125,-0.14575640125736258,0.30191961424604025,0.8271736808374279,0.4510025330362865,1.272216796875,-0.17431640625,-0.067138671875,-0.00439453125,-0.05029296875,-0.007568359375,0.0750732421875,0.2939453125,1.0814208984375,0.9085970641193885,-0.8276314584795679,0.5493026520584735,-0.1152073732718894,-0.0014038514358958708,0.0004272591326639607,-0.0005798516800439467,-0.7478560747093111,0.0674153874324778,-0.9625232703634754,-43.0625,7.625,1.3125,-13.08984375,6.69140625,7.578125,-27.4375,-1.4375,0.0,0,0,1533,1873,1018,1
1,154785,46,-0.7864619891964476,-0.8984344004638813,-0.8676412244026002,-0.8856471449934386,-0.8905606250190741,-0.9062776573992126,0.5820490127262185,0.39707632679219945,0.31174657429731134,0.2758262886440626,0.29007843256935334,0.2786034730063784,0.206610309152501,-0.18747520371105075,-0.38731040375988035,-0.3735465559862056,-0.35038300729392374,-0.31785027619251077,0.537109375,0.61865234375,0.6630859375,0.688232421875,0.697021484375,0.716796875,-0.636962890625,-0.12784203619495224,0.31373027741325116,0.8195440534684286,0.4621417889950255,1.265625,-0.185791015625,-0.19384765625,0.06591796875,-0.0504150390625,-0.033447265625,0.11376953125,0.2901611328125,1.0625,0.9035004730368968,-0.8293099765007477,0.554094058046205,-0.07214575640125737,-0.0013122959074678793,0.0003967406231879635,-0.0004577776421399579,-0.924497207556383,-0.8146000549333171,-0.9990844447157201,-43.8125,8.0625,1.75,-12.80078125,6.76953125,7.80859375,-28.0,-1.6875,0.0,0,0,1092,1962,1000,1
1,154836,47,-0.815668202764977,-0.8984649189733573,-0.880886257515183,-0.8905606250190741,-0.9062776573992126,-0.9210486159855953,0.5779290139469588,0.39701528977324746,0.2804956205938902,0.29007843256935334,0.2786034730063784,0.27631458479567855,0.025849177526169623,-0.18744468520157476,-0.3812372203741569,-0.35038300729392374,-0.31785027619251077,-0.27451399273659477,0.5556640625,0.635986328125,0.681884765625,0.697021484375,0.716796875,0.726806640625,-0.327880859375,-0.10574663533433028,0.33317056794946137,0.8124027222510453,0.46671956541642506,1.258544921875,-0.0078125,-0.18359375,0.0791015625,-0.053955078125,-0.02197265625,0.15869140625,0.2872314453125,1.0501708984375,0.8988921781060213,-0.8243049409466842,0.565935239722892,-0.016052735984374525,-0.001281777397991882,0.0003662221137119663,-0.0003967406231879635,-0.8343150120548113,-0.2119510483108005,-0.9908749656666769,-44.3125,8.3125,2.0,-12.58984375,6.9296875,7.8203125,-28.5,-1.875,0.0,0,0,1394,1917,1004,1
1,154886,48,-0.8202459791863765,-0.8856471449934386,-0.8856471449934386,-0.9062776573992126,-0.9210486159855953,-0.9339884640034181,0.5589465010528886,0.3793450727866451,0.2758262886440626,0.2786034730063784,0.27631458479567855,0.2683187353129673,-0.12143314920499283,-0.26786095767082735,-0.3735465559862056,-0.31785027619251077,-0.27451399273659477,-0.2359385967589343,0.56005859375,0.639892578125,0.688232421875,0.716796875,0.726806640625,0.74853515625,-0.707275390625,-0.09063997314371167,0.3542283394878994,0.8113956114383374,0.455977050080874,1.244873046875,-0.0732421875,-0.117431640625,0.09326171875,-0.0504150390625,-0.0379638671875,0.178466796875,0.2823486328125,1.0291748046875,0.8916898098696859,-0.8129520554216132,0.5820184942167425,0.0195928830835902,-0.0011902218695638905,0.0003357036042359691,-0.0003051850947599719,-0.9179967650379955,-0.8218024231696524,-0.9991760002441481,-45.0,8.75,2.4375,-12.21875,7.26171875,7.73828125,-29.0625,-2.1875,0.0,0,0,1089,1959,1000,1
1,154937,49,-0.8095950193792535,-0.8661763359477523,-0.8905606250190741,-0.9210486159855953,-0.9339884640034181,-0.9372234260078738,0.5414593951231422,0.35358745078890347,0.29007843256935334,0.27631458479567855,0.2683187353129673,0.2815942869350261,-0.22675252540665913,-0.3531907101657155,-0.35038300729392374,-0.27451399273659477,-0.2359385967589343,-0.2056642353587451,0.578125,0.645751953125,0.697021484375,0.726806640625,0.74853515625,0.7607421875,-0.394287109375,-0.07751701406903287,0.3773308511612293,0.7993408001953185,0.46116519669179357,1.23681640625,-0.046142578125,-0.113037109375,0.127685546875,-0.05615234375,-0.0269775390625,0.1549072265625,0.279296875,1.015625,0.8865627002777184,-0.793328653828547,0.6053651539658803,0.06479079561754204,-0.0011597033600878933,0.0003357036042359691,-0.00027466658528397473,-0.8973052156132695,-0.5153355510116886,-0.9978331858272041,-45.5,9.0,2.6875,-11.96875,7.51171875,7.671875,-29.5625,-2.4375,0.0,0,0,1242,1948,1001,1
1,154987,50,-0.7619861445966979,-0.8676412244026002,-0.9062776573992126,-0.9339884640034181,-0.9372234260078738,-0.9366435743278299,0.533555101168859,0.31174657429731134,0.2786034730063784,0.2683187353129673,0.2815942869350261,0.30274361400189215,-0.36701559495834224,-0.38731040375988035,-0.31785027619251077,-0.2359385967589343,-0.2056642353587451,-0.17618335520493178,0.58154296875,0.6630859375,0.716796875,0.74853515625,0.7607421875,0.7841796875,-0.763916015625,-0.0686056093020417,0.4034546952726829,0.783501693777276,0.46760460219122896,1.2216796875,-0.21533203125,-0.04052734375,0.16357421875,-0.0526123046875,-0.02880859375,0.19677734375,0.2742919921875,0.991455078125,0.8795434430982391,-0.7656788842432936,0.6344492934965056,0.10580767235328227,-0.0010376293221839045,0.0003357036042359691,-0.00021362956633198035,-0.9091158787804804,-0.6867885372478408,-0.9990844447157201,-46.125,9.5,3.0625,-11.55859375,7.78125,7.62109375,-30.125,-2.75,0.0,0,0,1156,1954,1000,1
1,155038,51,-0.7586291085543382,-0.880886257515183,-0.9210486159855953,-0.9372234260078738,-0.9366435743278299,-0.9267555772576067,0.4694662312692648,0.2804956205938902,0.27631458479567855,0.2815942869350261,0.30274361400189215,0.3392132328257088,-0.4517654957731864,-0.3812372203741569,-0.27451399273659477,-0.2056642353587451,-0.17618335520493178,-0.16135135959959715,0.59716796875,0.681884765625,0.726806640625,0.7607421875,0.7841796875,0.798828125,-0.472900390625,-0.06256294442579424,0.42655720694601273,0.7546617023224585,0.4945829645680105,1.212646484375,-0.292236328125,-0.039794921875,0.187744140625,-0.0540771484375,-0.015625,0.12158203125,0.27099609375,0.9744873046875,0.8747825556199835,-0.7345194860683004,0.6604205450605792,0.15601062044129765,-0.0009765923032319102,0.0003357036042359691,-0.00018311105685598315,-0.9101229895931883,-0.2554704428235725,-0.9985656300546282,-46.5625,9.8125,3.375,-11.26171875,8.01953125,7.578125,-30.625,-3.0625,0.0,0,0,1372,1955,1000,1
1,155080,52,-0.8167058320871609,-0.8856471449934386,-0.9339884640034181,-0.9366435743278299,-0.9267555772576067,-0.9177220984527116,0.39268166142765587,0.2758262886440626,0.2683187353129673,0.30274361400189215,0.3392132328257088,0.369487594225898,-0.4228644672994171,-0.3735465559862056,-0.2359385967589343,-0.17618335520493178,-0.16135135959959715,-0.1457258827478866,0.599853515625,0.688232421875,0.74853515625,0.7841796875,0.798828125,0.81298828125,-0.46484375,-0.05514694662312693,0.44645527512436295,0.7257606738486893,0.5204626606036561,1.20458984375,-0.39599609375,-0.052001953125,0.2138671875,-0.0498046875,-0.0185546875,0.1270751953125,0.267822265625,0.957275390625,0.8712118900112918,-0.7059846797082431,0.6772667622913296,0.20719016083254493,-0.0009155552842799158,0.0003662221137119663,-0.00015259254737998596,-0.9049348429822688,-0.1543321024201178,-0.9989013336588641,-47.0,10.0625,3.6875,-10.98828125,8.1015625,7.671875,-31.125,-3.375,0.0,0,0,1422,1952,1000,1
1,155130,53,-0.8824732200079348,-0.8905606250190741,-0.9372234260078738,-0.9267555772576067,-0.9177220984527116,-0.9063386944181646,0.38441114535966064,0.29007843256935334,0.2815942869350261,0.3392132328257088,0.369487594225898,0.4087343974120304,-0.2710348826563311,-0.35038300729392374,-0.2056642353587451,-0.16135135959959715,-0.1457258827478866,-0.10727256080813014,0.615478515625,0.697021484375,0.7607421875,0.798828125,0.81298828125,0.8408203125,-0.901611328125,-0.04104739524521622,0.4730063783684805,0.6875820184942167,0.5493636890774255,1.198974609375,-0.24609375,-0.173095703125,0.1943359375,-0.0518798828125,-0.001220703125,0.07861328125,0.26416015625,0.93505859375,0.8656575212866604,-0.6674703207495346,0.6900540177617726,0.27982421338541824,-0.0008239997558519242,0.0003662221137119663,-0.00012207403790398877,-0.9266640217291787,-0.7875606555375836,-0.9994811853389081,-47.625,10.5625,4.0625,-10.609375,8.2890625,7.8515625,-31.625,-3.75,0.0,0,0,1106,1963,1000,1
1,155180,54,-0.8984344004638813,-0.9062776573992126,-0.9366435743278299,-0.9177220984527116,-0.9063386944181646,-0.8971831415753655,0.39707632679219945,0.2786034730063784,0.30274361400189215,0.369487594225898,0.4087343974120304,0.43824579607531966,-0.18747520371105075,-0.31785027619251077,-0.17618335520493178,-0.1457258827478866,-0.10727256080813014,-0.055024872585222935,0.61865234375,0.716796875,0.7841796875,0.81298828125,0.8408203125,0.857421875,-0.541259765625,-0.023957029938657795,0.5058442945646534,0.6637775811029389,0.5504013183996094,1.1943359375,-0.10498046875,-0.264892578125,0.165283203125,-0.0528564453125,-0.0047607421875,0.1317138671875,0.2613525390625,0.918701171875,0.8629413739432966,-0.6178167058320871,0.706656086916715,0.3448591570787683,-0.0007629627368999298,0.0003662221137119663,-6.103701895199438e-05,-0.9193395794549394,0.49974059266945403,-0.9992980742820521,-48.0,10.875,4.375,-10.359375,8.30859375,8.0390625,-32.125,-4.0625,0.0,0,0,1749,1959,1000,1
1,155243,55,-0.8984649189733573,-0.9210486159855953,-0.9267555772576067,-0.9063386944181646,-0.8971831415753655,-0.8868373668630024,0.39701528977324746,0.27631458479567855,0.3392132328257088,0.4087343974120304,0.43824579607531966,0.4616534928434095,-0.18744468520157476,-0.27451399273659477,-0.16135135959959715,-0.10727256080813014,-0.055024872585222935,0.02044740134891812,0.635986328125,0.726806640625,0.798828125,0.8408203125,0.857421875,0.88720703125,-0.970458984375,0.0016479995117038484,0.5425275429548021,0.6366466261787774,0.5480208746604815,1.18505859375,-0.33935546875,-0.113525390625,0.148681640625,-0.051513671875,-0.0174560546875,0.2296142578125,0.2568359375,0.8868408203125,0.858943449201941,-0.5587023529770806,0.7140415662099063,0.4219183935056612,-0.0007019257179479354,0.0003662221137119663,0.0,-0.9403973509933775,-0.1564989165929136,-0.99984740745262,-48.625,11.4375,4.875,-9.80859375,8.66015625,8.12890625,-32.5625,-4.4375,0.0,0,0,1421,1970,1000,1
1,155281,56,-0.8856471449934386,-0.9339884640034181,-0.9177220984527116,-0.8971831415753655,-0.8868373668630024,-0.8814966277047029,0.3793450727866451,0.2683187353129673,0.369487594225898,0.43824579607531966,0.4616534928434095,0.47016815698721276,-0.26786095767082735,-0.2359385967589343,-0.1457258827478866,-0.055024872585222935,0.02044740134891812,0.04361095004119999,0.639892578125,0.74853515625,0.81298828125,0.857421875,0.88720703125,0.906494140625,-0.625,0.015808587908566547,0.5553758354441969,0.6107669301431318,0.564165166173284,1.17529296875,-0.131103515625,-0.033203125,0.127685546875,-0.05322265625,0.002197265625,0.1866455078125,0.25341796875,0.8592529296875,0.8574175237281411,-0.5345011749626148,0.7014679403057955,0.4714194158757286,-0.000640888698995941,0.0003357036042359691,3.051850947599719e-05,-0.9249855037079989,0.5074312570574053,-0.99954222235786,-49.0,11.75,5.1875,-9.328125,8.98828125,8.1015625,-33.0625,-4.8125,0.0,0,0,1753,1962,1000,1
1,155332,57,-0.8661763359477523,-0.9372234260078738,-0.9063386944181646,-0.8868373668630024,-0.8814966277047029,-0.8774071474349193,0.35358745078890347,0.2815942869350261,0.4087343974120304,0.4616534928434095,0.47016815698721276,0.478286080507828,-0.3531907101657155,-0.2056642353587451,-0.10727256080813014,0.02044740134891812,0.04361095004119999,0.03714102603228858,0.645751953125,0.7607421875,0.8408203125,0.88720703125,0.906494140625,0.938232421875,-1.03271484375,0.01315347758415479,0.5662404248176519,0.5986816003906369,0.5663624988555559,1.170166015625,-0.01806640625,-0.088623046875,0.100341796875,-0.05517578125,-0.0145263671875,0.099853515625,0.2493896484375,0.8280029296875,0.8552812280648213,-0.5149388103885006,0.7117221594897305,0.47776726584673607,-0.0037537766655476546,0.002380443739127781,0.000946073793755913,-0.9465010528885769,-0.12042603839228493,-1.0,-49.5,12.3125,5.625,-8.7890625,9.26171875,8.26953125,-33.5,-5.25,0.0,0,0,1439,1973,1000,1
1,155386,58,-0.8676412244026002,-0.9366435743278299,-0.8971831415753655,-0.8814966277047029,-0.8774071474349193,-0.8758201849421674,0.31174657429731134,0.30274361400189215,0.43824579607531966,0.47016815698721276,0.478286080507828,0.4811853389080477,-0.38731040375988035,-0.17618335520493178,-0.055024872585222935,0.04361095004119999,0.03714102603228858,0.037263100070192574,0.6630859375,0.7841796875,0.857421875,0.906494140625,0.938232421875,0.95947265625,-0.69140625,0.01293984801782281,0.5801263466292307,0.5967589342936491,0.554216132084109,1.168212890625,0.187255859375,-0.123046875,0.037841796875,-0.0555419921875,-0.0052490234375,0.1239013671875,0.2469482421875,0.8143310546875,0.8528397473067415,-0.49046296578875087,0.727927488021485,0.4791100802636799,-0.003662221137119663,0.002349925229651784,0.0008850367748039186,-0.9322489089632863,0.3705862605670339,-0.999755851924192,-49.8125,12.625,5.9375,-8.55859375,9.30078125,8.421875,-33.9375,-5.625,0.0,0,0,1685,1966,1000,1
1,155433,59,-0.880886257515183,-0.9267555772576067,-0.8868373668630024,-0.8774071474349193,-0.8758201849421674,-0.8806421094393749,0.2804956205938902,0.3392132328257088,0.4616534928434095,0.478286080507828,0.4811853389080477,0.4727622302926725,-0.3812372203741569,-0.16135135959959715,0.02044740134891812,0.03714102603228858,0.037263100070192574,0.031250953703421125,0.681884765625,0.798828125,0.88720703125,0.938232421875,0.95947265625,0.993896484375,-1.11279296875,0.007141331217383343,0.5939512314218574,0.608844264046144,0.5258033997619557,1.163818359375,0.19873046875,-0.159423828125,-0.0087890625,-0.05517578125,-0.0162353515625,0.134765625,0.242919921875,0.7877197265625,0.8498184148686179,-0.47032074953459274,0.7579271828363903,0.4520401623584704,-0.0035706656086916715,0.002227851191747795,0.0007019257179479354,-0.9475997192297129,-0.14474929044465468,-1.0,-50.3125,13.1875,6.4375,-8.1015625,9.46875,8.578125,-34.375,-6.0625,0.0,0,0,1427,1973,1000,1
1,155485,60,-0.8856471449934386,-0.9177220984527116,-0.8814966277047029,-0.8758201849421674,-0.8806421094393749,-0.8883022553178502,0.2758262886440626,0.369487594225898,0.47016815698721276,0.4811853389080477,0.4727622302926725,0.4580523087252419,-0.3735465559862056,-0.1457258827478866,0.04361095004119999,0.037263100070192574,0.031250953703421125,0.033661915952024904,0.688232421875,0.81298828125,0.906494140625,0.95947265625,0.993896484375,1.017578125,-0.775390625,0.00598162785729545,0.6070131534775841,0.6241035187841426,0.49192785424359875,1.158447265625,0.250732421875,-0.116455078125,-0.041259765625,-0.055419921875,-0.0103759765625,0.195068359375,0.2398681640625,0.77001953125,0.847560045167394,-0.4519791253395184,0.783349101229896,0.4266792809839167,-0.00347911008026368,0.0021362956633198035,0.0006714072084719382,-0.9350871303445539,0.31104464857936337,-0.999816888943144,-50.5625,13.5625,6.8125,-7.7890625,9.58984375,8.609375,-34.75,-6.5,0.0,0,0,1655,1967,1000,1
1,155535,61,-0.8905606250190741,-0.9063386944181646,-0.8774071474349193,-0.8806421094393749,-0.8883022553178502,-0.9002349925229651,0.29007843256935334,0.4087343974120304,0.478286080507828,0.4727622302926725,0.4580523087252419,0.43458357493820005,-0.35038300729392374,-0.10727256080813014,0.03714102603228858,0.031250953703421125,0.033661915952024904,0.02642902920621357,0.697021484375,0.8408203125,0.938232421875,0.993896484375,1.017578125,1.053955078125,-1.176513671875,0.000793481246375927,0.6134220404675436,0.641254921109653,0.4610126041444136,1.147216796875,0.1484375,-0.0947265625,-0.028564453125,-0.0572509765625,-0.009765625,0.18603515625,0.23486328125,0.7403564453125,0.8433790093691824,-0.4489577929013947,0.804834131900998,0.3881344035157323,-0.0033875545518356883,0.0019226660969878231,0.0005188146610919523,-0.9478133487960448,-0.152287362285226,-1.0,-51.0,14.1875,7.3125,-7.25,9.87109375,8.51171875,-35.1875,-6.9375,0.0,0,0,1423,1973,1000,1
1,155586,62,-0.9062776573992126,-0.8971831415753655,-0.8758201849421674,-0.8883022553178502,-0.9002349925229651,-0.913022247993408,0.2786034730063784,0.43824579607531966,0.4811853389080477,0.4580523087252419,0.43458357493820005,0.4078493606372265,-0.31785027619251077,-0.055024872585222935,0.037263100070192574,0.033661915952024904,0.02642902920621357,0.0045167394024475845,0.716796875,0.857421875,0.95947265625,1.017578125,1.053955078125,1.07958984375,-0.83544921875,-0.009125034333323161,0.6136051515243995,0.6596270638142033,0.43397320474868006,1.138671875,0.24853515625,-0.033203125,-0.02294921875,-0.056640625,-0.0250244140625,0.200439453125,0.2314453125,0.722900390625,0.8401745658742027,-0.45606860560930207,0.8217719046601764,0.3415936765648366,-0.0032959990234076968,0.0017700735496078372,0.0003967406231879635,-0.9389324625385296,0.0794091616565447,-0.99984740745262,-51.3125,14.5625,7.625,-6.9296875,10.01171875,8.421875,-35.5625,-7.4375,0.0,0,0,1539,1969,1000,1
1,155637,63,-0.9210486159855953,-0.8868373668630024,-0.8806421094393749,-0.9002349925229651,-0.913022247993408,-0.9252601702932829,0.27631458479567855,0.4616534928434095,0.4727622302926725,0.43458357493820005,0.4078493606372265,0.3782769249549852,-0.27451399273659477,0.02044740134891812,0.031250953703421125,0.02642902920621357,0.0045167394024475845,-0.028778954435865353,0.726806640625,0.88720703125,0.993896484375,1.053955078125,1.07958984375,1.117919921875,-1.2490234375,-0.026459547715689567,0.6102786339915158,0.6775109103671376,0.4096804712057863,1.13037109375,0.22607421875,0.005615234375,-0.04150390625,-0.058349609375,-0.0189208984375,0.1519775390625,0.2269287109375,0.70361328125,0.8331858272041993,-0.4700155644398328,0.837000640888699,0.2801599169896542,-0.003204443494979705,0.0015564439832758568,0.00018311105685598315,-0.9472029786065248,-0.2434156315805536,-1.0,-51.6875,15.125,8.125,-6.53125,10.23828125,8.26953125,-35.9375,-7.875,0.0,0,0,1378,1973,1000,1
1,155687,64,-0.9339884640034181,-0.8814966277047029,-0.8883022553178502,-0.913022247993408,-0.9252601702932829,-0.9339274269844661,0.2683187353129673,0.47016815698721276,0.4580523087252419,0.4078493606372265,0.3782769249549852,0.35227515488143557,-0.2359385967589343,0.04361095004119999,0.033661915952024904,0.0045167394024475845,-0.028778954435865353,-0.060426648762474444,0.74853515625,0.906494140625,1.017578125,1.07958984375,1.117919921875,1.14599609375,-0.909423828125,-0.04480117191076388,0.6075319681386762,0.6936552018799402,0.38438062685018465,1.125732421875,0.278076171875,-0.0283203125,-0.013916015625,-0.0618896484375,-0.01904296875,0.135986328125,0.2239990234375,0.6944580078125,0.8281807916501358,-0.47874385814996795,0.8501235999633778,0.21936704611346783,-0.0030823694570757164,0.0014038514358958708,6.103701895199438e-05,-0.9418622394482253,-0.5085299233985412,-0.999877925962096,-51.9375,15.5625,8.4375,-6.33984375,10.30078125,8.23828125,-36.25,-8.375,0.0,0,0,1245,1970,1000,1
1,155737,65,-0.9372234260078738,-0.8774071474349193,-0.9002349925229651,-0.9252601702932829,-0.9339274269844661,-0.9403057954649495,0.2815942869350261,0.478286080507828,0.43458357493820005,0.3782769249549852,0.35227515488143557,0.3272804956205939,-0.2056642353587451,0.03714102603228858,0.02642902920621357,-0.028778954435865353,-0.060426648762474444,-0.09329508346812342,0.7607421875,0.938232421875,1.053955078125,1.117919921875,1.14599609375,1.186279296875,-1.30908203125,-0.06970427564317759,0.6057008575701163,0.7097384563737907,0.35285500656147956,1.120849609375,0.307861328125,0.01318359375,0.023681640625,-0.055908203125,-0.0225830078125,0.1666259765625,0.219970703125,0.684814453125,0.8186284981841487,-0.4844813379314554,0.8633686330759606,0.14102603228858301,-0.0029297769096957305,0.0012207403790398877,-0.00012207403790398877,-0.9435407574694052,-0.5255897701956237,-0.999908444471572,-52.25,16.1875,8.9375,-6.1015625,10.41015625,8.171875,-36.625,-8.875,0.0,0,0,1237,1971,1000,1
2,171299,0,0.9340189825128941,0.9340189825128941,0.9340189825128941,0.9340189825128941,0.9340189825128941,0.9950560014648885,-0.22330393383587147,-0.22330393383587147,-0.22330393383587147,-0.22330393383587147,-0.22330393383587147,0.058107242042298654,0.27878658406323437,0.27878658406323437,0.27878658406323437,0.27878658406323437,0.27878658406323437,-0.0805078279976806,7.999755859375,7.999755859375,7.999755859375,7.999755859375,7.999755859375,0.023193359375,7.999755859375,0.02151554918057802,0.04480117191076388,-0.17673268837549974,0.9830011902218696,1.58544921875,-0.02099609375,-0.00341796875,0.003173828125,0.01513671875,0.0213623046875,-0.1214599609375,0.3563232421875,0.0,0.9982299264503922,0.0,0.0,0.0,0.04217658009582812,0.0024719992675557726,-0.0034180730613116855,-0.989135410626545,-0.4205755790887173,-1.0,0.0,0.0,0.0,-20.51171875,1.0,1.76953125,-0.625,0.0,0.0,1,0,1289,1994,1000,1
2,171332,1,0.9340189825128941,0.9340189825128941,0.9340189825128941,0.9340189825128941,0.9950560014648885,0.9169896542252877,-0.22330393383587147,-0.22330393383587147,-0.22330393383587147,-0.22330393383587147,0.058107242042298654,0.35294656208990755,0.27878658406323437,0.27878658406323437,0.27878658406323437,0.27878658406323437,-0.0805078279976806,-0.1858882412182989,7.999755859375,7.999755859375,7.999755859375,7.999755859375,0.023193359375,0.012939453125,0.32861328125,0.02368236335337382,0.04446546830652791,-0.17679372539445173,0.9829706717123936,1.59765625,-0.001708984375,0.010498046875,-0.01416015625,0.0206298828125,0.0283203125,-0.1080322265625,0.3580322265625,1.5906982421875,0.9980468153935361,-0.9936216315195165,0.022766808069093907,0.11038544877468184,-0.38993499557481615,0.8632160405285806,-0.30835901974547564,-0.6019470809045686,-0.8984649189733573,-0.945524460585345,-0.875,0.0625,0.0625,-20.66015625,1.140625,1.7890625,-1.1875,0.0,0.0,0,0,1050,1800,1027,1
2,171383,2,0.9340189825128941,0.9340189825128941,0.9340189825128941,0.9950560014648885,0.9169896542252877,-0.8615375225074008,-0.22330393383587147,-0.22330393383587147,-0.22330393383587147,0.058107242042298654,0.35294656208990755,0.47859126560258797,0.27878658406323437,0.27878658406323437,0.27878658406323437,-0.0805078279976806,-0.1858882412182989,-0.1694082461012604,7.999755859375,7.999755859375,7.999755859375,0.023193359375,0.012939453125,0.01806640625,-0.16552734375,0.029755546739097263,0.042664876247444077,-0.17676320688497574,0.9828791161839656,1.615478515625,0.014892578125,0.02685546875,-0.051025390625,0.01708984375,0.029541015625,-0.1341552734375,0.3607177734375,1.6085205078125,0.9978026673177282,-0.9943845942564166,0.012237922299874875,0.10504470961638233,-0.00521866512039552,0.006073183385723441,-0.002380443739127781,-0.9934995574816126,0.966643269142735,-0.9286782433545946,-2.1875,0.1875,0.1875,-20.87890625,1.2890625,1.859375,-1.8125,0.0,0.0,0,0,1983,1996,1035,1
2,171434,3,0.9340189825128941,0.9340189825128941,0.9340189825128941,0.9169896542252877,-0.8615375225074008,-0.9125949888607441,-0.22330393383587147,-0.22330393383587147,-0.22330393383587147,0.35294656208990755,0.47859126560258797,0.3857234412671285,0.27878658406323437,0.27878658406323437,0.27878658406323437,-0.1858882412182989,-0.1694082461012604,-0.13562425611133153,7.999755859375,7.999755859375,7.999755859375,0.012939453125,0.01806640625,0.0302734375,-0.396728515625,0.037659840693380534,0.04043702505569628,-0.17511520737327188,0.9830011902218696,1.628173828125,0.024169921875,0.017822265625,-0.03076171875,0.0107421875,0.01611328125,-0.132568359375,0.362548828125,1.6217041015625,0.9975890377513962,-0.9951170384838405,-6.103701895199438e-05,0.09860530411694693,-0.017334513382366405,0.007324442274239326,-0.002563554795983764,-0.9988708151493881,-0.14407788323618276,-0.9994811853389081,-3.0625,0.3125,0.25,-21.0390625,1.4296875,1.8203125,-2.375,0.0,0.0,0,0,1427,1999,1000,1
2,171486,4,0.9340189825128941,0.9340189825128941,0.9950560014648885,-0.8615375225074008,-0.9125949888607441,-0.9599902340769677,-0.22330393383587147,-0.22330393383587147,0.058107242042298654,0.47859126560258797,0.3857234412671285,0.26578569902645954,0.27878658406323437,0.27878658406323437,-0.0805078279976806,-0.1694082461012604,-0.13562425611133153,-0.0881679738761559,7.999755859375,7.999755859375,0.023193359375,0.01806640625,0.0302734375,0.056884765625,-0.864501953125,0.04647968993194372,0.03888058107242042,-0.17850276192510758,0.9820551164281136,1.6376953125,0.005859375,0.007568359375,-0.042236328125,0.0147705078125,0.0216064453125,-0.1195068359375,0.3636474609375,1.63134765625,0.9972533341471602,-0.9954527420880764,-0.013214514603106785,0.09424115726187933,-0.026642658772545548,0.009033478804895169,-0.0031128879665517136,-0.9772942289498581,-0.8462477492599262,-0.40882595294045837,-4.375,0.4375,0.375,-21.1484375,1.62109375,1.83984375,-3.0,0.0,0.0,0,0,1076,1988,1295,1
2,171536,5,0.9340189825128941,0.9340189825128941,0.9169896542252877,-0.9125949888607441,-0.9599902340769677,-0.9626453444013794,-0.22330393383587147,-0.22330393383587147,0.35294656208990755,0.3857234412671285,0.26578569902645954,0.25717947935422836,0.27878658406323437,0.27878658406323437,-0.1858882412182989,-0.13562425611133153,-0.0881679738761559,-0.08474990081484421,7.999755859375,7.999755859375,0.012939453125,0.0302734375,0.056884765625,0.06982421875,-0.4228515625,0.054383983886227,0.03653065584276864,-0.1836909085360271,0.9808038575395978,1.650146484375,-0.075927734375,0.01171875,-0.05712890625,0.0120849609375,0.0174560546875,-0.1265869140625,0.365478515625,1.6435546875,0.9969786675618763,-0.9957579271828364,-0.025025177770317698,0.08856471449934385,-0.03302102725302896,0.00881984923856319,-0.0028992584002197333,-0.9073458052308725,-0.9139378032776879,-0.8427991576891385,-5.25,0.5625,0.5,-21.30078125,1.73828125,1.87109375,-3.625,0.0,0.0,0,0,1043,1953,1078,1
2,171590,6,0.9340189825128941,0.9340189825128941,-0.8615375225074008,-0.9599902340769677,-0.9626453444013794,-0.9749443037202064,-0.22330393383587147,-0.22330393383587147,0.47859126560258797,0.26578569902645954,0.25717947935422836,0.2099063081759087,0.27878658406323437,0.27878658406323437,-0.1694082461012604,-0.0881679738761559,-0.08474990081484421,-0.07367168187505722,7.999755859375,7.999755859375,0.01806640625,0.056884765625,0.06982421875,0.09912109375,-0.950927734375,0.0597857600634785,0.034638508255256814,-0.1879024628437147,0.9797662282174139,1.664794921875,-0.017333984375,-0.035888671875,-0.017333984375,0.009033203125,0.006591796875,-0.1314697265625,0.367431640625,1.658203125,0.9965514084292123,-0.9959105197302164,-0.0336924344615009,0.0838038270210883,-0.0358897671437727,0.008789330729087191,-0.0030823694570757164,-0.9857478560747093,-0.8203680532242805,-0.40061647389141514,-6.625,0.6875,0.625,-21.46875,1.94921875,1.8984375,-4.1875,0.0,0.0,0,0,1089,1992,1299,1
2,171639,7,0.9340189825128941,0.9340189825128941,-0.9125949888607441,-0.9626453444013794,-0.9749443037202064,-0.9743644520401623,-0.22330393383587147,-0.22330393383587147,0.3857234412671285,0.25717947935422836,0.2099063081759087,0.21366008484145635,0.27878658406323437,0.27878658406323437,-0.13562425611133153,-0.08474990081484421,-0.07367168187505722,-0.07031464583269753,7.999755859375,7.999755859375,0.0302734375,0.06982421875,0.09912109375,0.112548828125,-0.4375,0.06234931485946226,0.03457747123630482,-0.18903164769432662,0.9793694875942259,1.674560546875,0.03173828125,0.012451171875,-0.01318359375,0.0123291015625,0.0194091796875,-0.113037109375,0.3687744140625,1.6678466796875,0.9962157048249763,-0.9958189642017884,-0.03595080416272469,0.08395641956846828,-0.035828730124820705,0.00784325693533128,-0.0025940733054597613,-0.8828089236121708,-0.9105502487258522,-0.8740806299020356,-7.5,0.8125,0.6875,-21.578125,2.109375,1.921875,-4.8125,0.0,0.0,0,0,1044,1941,1062,1
2,171679,8,0.9340189825128941,0.9950560014648885,-0.9599902340769677,-0.9749443037202064,-0.9743644520401623,-0.9730216376232185,-0.22330393383587147,0.058107242042298654,0.26578569902645954,0.2099063081759087,0.21366008484145635,0.2196722312082278,0.27878658406323437,-0.0805078279976806,-0.0881679738761559,-0.07367168187505722,-0.07031464583269753,-0.0705282753990295,7.999755859375,0.023193359375,0.056884765625,0.09912109375,0.112548828125,0.12451171875,-0.390625,0.06390575884273812,0.03564561906796472,-0.1902523880733665,0.979003265480514,1.681640625,-0.013916015625,-0.04345703125,0.00146484375,0.0087890625,0.014404296875,-0.1116943359375,0.36962890625,1.6746826171875,0.9958800012207404,-0.9955442976165044,-0.037873470259712515,0.08621478926969207,-0.03518784142582476,0.00881984923856319,-0.002838221381267739,0.8061769463179418,0.7697378460036012,0.8692892239143041,-8.4375,0.9375,0.75,-21.66015625,2.19921875,1.98046875,-5.375,0.0,0.0,0,0,1884,1096,1934,1
2,171730,9,0.9340189825128941,0.9169896542252877,-0.9626453444013794,-0.9743644520401623,-0.9730216376232185,-0.9783623767815179,-0.22330393383587147,0.35294656208990755,0.25717947935422836,0.21366008484145635,0.2196722312082278,0.19882808923612172,0.27878658406323437,-0.1858882412182989,-0.08474990081484421,-0.07031464583269753,-0.0705282753990295,-0.05737479781487472,7.999755859375,0.012939453125,0.06982421875,0.112548828125,0.12451171875,0.156982421875,-1.050537109375,0.06573686941129796,0.0370189519943846,-0.1935483870967742,0.978179265724662,1.6962890625,-0.04833984375,0.016357421875,-0.004150390625,0.006591796875,0.0074462890625,-0.10302734375,0.37158203125,1.6885986328125,0.9952391125217445,-0.9952085940122685,-0.0391247291482284,0.08975493636890775,-0.0304574724570452,0.00619525742362743,-0.0018005920590838343,0.8720969267860957,0.44175542466505935,0.9989928891872921,-9.8125,1.125,0.9375,-21.8203125,2.3984375,2.08984375,-6.0,0.0,0.0,0,0,1720,1063,1999,1
2,171781,10,0.9340189825128941,-0.8615375225074008,-0.9749443037202064,-0.9730216376232185,-0.9783623767815179,-0.9766838587603381,-0.22330393383587147,0.47859126560258797,0.2099063081759087,0.2196722312082278,0.19882808923612172,0.20728171636097292,0.27878658406323437,-0.1694082461012604,-0.07367168187505722,-0.0705282753990295,-0.05737479781487472,-0.056001464888454845,7.999755859375,0.01806640625,0.09912109375,0.12451171875,0.156982421875,0.169189453125,-0.396728515625,0.0663472396008179,0.03903317361980041,-0.195593127231666,0.97766045106357,1.7001953125,-0.0595703125,-0.035400390625,0.002685546875,0.0023193359375,0.0194091796875,-0.0869140625,0.3717041015625,1.69189453125,0.9948118533890805,-0.9947508163701285,-0.03958250679036836,0.09433271279030732,-0.02948088015381329,0.006775109103671377,-0.0018311105685598315,0.8060243537705618,0.8753318887905515,0.9441511276589252,-10.6875,1.25,1.0,-21.8515625,2.51953125,2.19140625,-6.625,0.0,0.0,0,0,1937,1096,1972,1
2,171833,11,0.9340189825128941,-0.9125949888607441,-0.9743644520401623,-0.9783623767815179,-0.9766838587603381,-0.9801019318216498,-0.22330393383587147,0.3857234412671285,0.21366008484145635,0.19882808923612172,0.20728171636097292,0.19272438734092226,0.27878658406323437,-0.13562425611133153,-0.07031464583269753,-0.05737479781487472,-0.056001464888454845,-0.04770043031098361,7.999755859375,0.0302734375,0.112548828125,0.156982421875,0.169189453125,0.201416015625,-1.045654296875,0.06866664632099369,0.04092532120731224,-0.1965392010254219,0.9772331919309061,1.713623046875,-0.05029296875,-0.03759765625,-0.01318359375,0.0057373046875,0.021240234375,-0.1004638671875,0.3734130859375,1.7041015625,0.9940488906521805,-0.9942625202185126,-0.04202398754844813,0.09836115604113894,-0.023407696768089847,0.004608294930875576,-0.0011291848506118961,0.869563890499588,0.4462416455580309,0.9982909634693442,-12.125,1.4375,1.1875,-21.98828125,2.6796875,2.359375,-7.1875,0.0,0.0,0,0,1723,1065,1999,1
2,171884,12,0.9340189825128941,-0.9599902340769677,-0.9730216376232185,-0.9766838587603381,-0.9801019318216498,-0.9826654866176336,-0.22330393383587147,0.26578569902645954,0.2196722312082278,0.20728171636097292,0.19272438734092226,0.1803949095126194,0.27878658406323437,-0.0881679738761559,-0.0705282753990295,-0.056001464888454845,-0.04770043031098361,-0.04287850581377606,7.999755859375,0.056884765625,0.12451171875,0.169189453125,0.201416015625,0.232666015625,-1.01708984375,0.07327494125186926,0.04226813562425611,-0.19943845942564165,0.9762565996276742,1.724365234375,0.013671875,0.019287109375,-0.036376953125,0.005859375,0.017822265625,-0.0791015625,0.37451171875,1.7130126953125,0.9931943723868526,-0.9937131870479445,-0.04879909665211951,0.10071108127079073,-0.019959105197302165,0.003906369212927641,-0.000946073793755913,0.8239997558519242,0.8324228644672994,0.9818109683523056,-13.5,1.625,1.3125,-22.08984375,2.8203125,2.55859375,-7.8125,0.0,0.0,0,0,1916,1087,1990,1
2,171934,13,0.9340189825128941,-0.9626453444013794,-0.9783623767815179,-0.9801019318216498,-0.9826654866176336,-0.9832758568071536,-0.22330393383587147,0.25717947935422836,0.19882808923612172,0.19272438734092226,0.1803949095126194,0.1770378734702597,0.27878658406323437,-0.08474990081484421,-0.05737479781487472,-0.04770043031098361,-0.04287850581377606,-0.04293954283272805,7.999755859375,0.06982421875,0.156982421875,0.201416015625,0.232666015625,0.247314453125,-0.47900390625,0.07913449507126072,0.04361095004119999,-0.2043824579607532,0.9747001556443984,1.732421875,-0.08349609375,-0.0087890625,-0.050048828125,0.00439453125,0.02294921875,-0.10595703125,0.375244140625,1.719970703125,0.9925534836878567,-0.9929807428205206,-0.05999938962981048,0.10196234015930662,-0.017212439344462416,0.0031128879665517136,-0.0007629627368999298,0.8550675984984893,0.5998718222602009,0.9952696310312205,-14.4375,1.75,1.4375,-22.171875,2.91015625,2.6796875,-8.375,0.0,0.0,0,0,1799,1072,1997,1
2,171986,14,0.9340189825128941,-0.9749443037202064,-0.9766838587603381,-0.9826654866176336,-0.9832758568071536,-0.9857478560747093,-0.22330393383587147,0.2099063081759087,0.20728171636097292,0.1803949095126194,0.1770378734702597,0.16269417401654104,0.27878658406323437,-0.07367168187505722,-0.056001464888454845,-0.04287850581377606,-0.04293954283272805,-0.04303109836115604,7.999755859375,0.09912109375,0.169189453125,0.232666015625,0.247314453125,0.27880859375,-1.02587890625,0.08609271523178808,0.044038209173863946,-0.2074648274178289,0.9734488967558824,1.74169921875,-0.051513671875,-0.02392578125,-0.02294921875,0.0047607421875,0.0169677734375,-0.1324462890625,0.3759765625,1.728759765625,0.9914548173467208,-0.9922788171025727,-0.07135227515488143,0.10138248847926268,-0.014587847529526658,0.002563554795983764,-0.0006714072084719382,0.838038270210883,0.7585070345164342,0.9913022247993408,-15.75,2.0,1.625,-22.26171875,3.1015625,2.75,-9.0,0.0,0.0,0,0,1879,1080,1995,1
2,172036,15,0.9340189825128941,-0.9743644520401623,-0.9801019318216498,-0.9832758568071536,-0.9857478560747093,-0.9864497817926573,-0.22330393383587147,0.21366008484145635,0.19272438734092226,0.1770378734702597,0.16269417401654104,0.15720084231086154,0.27878658406323437,-0.07031464583269753,-0.04770043031098361,-0.04293954283272805,-0.04303109836115604,-0.0466933194982757,7.999755859375,0.112548828125,0.201416015625,0.247314453125,0.27880859375,0.29345703125,-0.47119140625,0.09295937986388744,0.04437391277809992,-0.20795312356944487,0.9726859340189825,1.749267578125,0.00439453125,0.00146484375,-0.035888671875,0.0018310546875,0.0198974609375,-0.1204833984375,0.376708984375,1.736083984375,0.9906002990813929,-0.9914853358561968,-0.08331553086947234,0.0999786370433668,-0.013855403302102725,0.0024719992675557726,-0.0007324442274239326,0.8445692312387463,0.6934415723136083,0.9924314096499527,-16.6875,2.125,1.75,-22.33984375,3.23046875,2.76171875,-9.625,0.0,0.0,0,0,1846,1077,1996,1
2,172097,16,0.9950560014648885,-0.9730216376232185,-0.9826654866176336,-0.9857478560747093,-0.9864497817926573,-0.9880062257759331,0.058107242042298654,0.2196722312082278,0.1803949095126194,0.16269417401654104,0.15720084231086154,0.14334543900875882,-0.0805078279976806,-0.0705282753990295,-0.04287850581377606,-0.04303109836115604,-0.0466933194982757,-0.057252723776970736,0.023193359375,0.12451171875,0.232666015625,0.27880859375,0.29345703125,0.325439453125,-1.0439453125,0.10074159978026673,0.04037598803674428,-0.20838038270210882,0.9720145268105106,1.7626953125,0.110595703125,0.1396484375,-0.0009765625,0.0325927734375,0.0155029296875,-0.06494140625,0.378173828125,1.74853515625,0.989196447645497,-0.9914548173467208,-0.09436323129978332,0.09009063997314372,-0.010681478316599017,0.0016479995117038484,-0.000640888698995941,0.7490157780693991,0.8757591479232154,0.956297494430372,-18.0625,2.375,1.9375,-22.48046875,3.3984375,2.8515625,-10.1875,0.0,0.0,0,0,1937,1125,1978,1
2,172138,17,0.9169896542252877,-0.9783623767815179,-0.9832758568071536,-0.9864497817926573,-0.9880062257759331,-0.9800714133121738,0.35294656208990755,0.19882808923612172,0.1770378734702597,0.15720084231086154,0.14334543900875882,0.1533249916074099,-0.1858882412182989,-0.05737479781487472,-0.04293954283272805,-0.0466933194982757,-0.057252723776970736,-0.12625507370220038,0.012939453125,0.156982421875,0.247314453125,0.29345703125,0.325439453125,0.341064453125,-0.5078125,0.10223700674459059,0.013855403302102725,-0.17773979918820765,0.978667561876278,1.775390625,0.37890625,0.427001953125,0.11279296875,0.024169921875,0.0321044921875,-0.1639404296875,0.3798828125,1.7593994140625,0.9881588183233131,-0.9959715567491684,-0.08166753135776848,0.037415692617572556,-0.010010071108127079,0.00173955504013184,-0.0013428144169438765,0.7059541611987671,0.271645252845851,-0.8323313089388714,-19.0625,2.5625,2.0625,-22.609375,3.48046875,3.05859375,-10.8125,0.0,0.0,0,0,1635,1147,1083,1
2,172189,18,-0.8615375225074008,-0.9766838587603381,-0.9857478560747093,-0.9880062257759331,-0.9800714133121738,-0.9479354228339488,0.47859126560258797,0.20728171636097292,0.16269417401654104,0.14334543900875882,0.1533249916074099,0.15616321298867764,-0.1694082461012604,-0.056001464888454845,-0.04303109836115604,-0.057252723776970736,-0.12625507370220038,-0.27750480666524246,0.01806640625,0.169189453125,0.27880859375,0.325439453125,0.341064453125,0.37451171875,-1.0830078125,0.09598071230201118,-0.04541154210028382,-0.09762871181371502,0.9895321512497329,1.7822265625,0.645751953125,0.38330078125,0.150390625,0.0579833984375,0.050537109375,-0.5496826171875,0.3798828125,1.7724609375,0.9861140781884212,-0.9953917050691244,-0.048768578142643515,-0.0825525681325724,-0.007477034821619312,0.001281777397991882,-0.002227851191747795,0.8176519058809167,-0.8744468520157476,0.9883419293801691,-20.4375,2.8125,2.3125,-22.73828125,3.78125,2.3203125,-11.375,0.0,0.0,0,0,1062,1091,1994,1
2,172229,19,-0.9125949888607441,-0.9801019318216498,-0.9864497817926573,-0.9800714133121738,-0.9479354228339488,-0.9094210638752404,0.3857234412671285,0.19272438734092226,0.15720084231086154,0.1533249916074099,0.15616321298867764,0.14706869716483048,-0.13562425611133153,-0.04770043031098361,-0.0466933194982757,-0.12625507370220038,-0.27750480666524246,-0.3889889217810602,0.0302734375,0.201416015625,0.29345703125,0.341064453125,0.37451171875,0.39013671875,-0.50732421875,0.08880886257515183,-0.08865627002777185,-0.02630695516830958,0.9917600024414808,1.771484375,0.386962890625,0.3876953125,0.079345703125,0.02197265625,0.05810546875,-0.5927734375,0.3768310546875,1.7689208984375,0.9844050416577654,-0.9842219306009095,-0.03375347148045289,-0.17374187444685202,-0.006805627613147374,0.0011902218695638905,-0.002990813928647725,0.7595751823480941,0.7144688253425703,0.030274361400189215,-21.375,3.0,2.375,-22.6796875,3.859375,1.0,-12.0,0.0,0.0,0,0,1857,1120,1515,1
2,172280,20,-0.9599902340769677,-0.9826654866176336,-0.9880062257759331,-0.9479354228339488,-0.9094210638752404,-0.8506424146244698,0.26578569902645954,0.1803949095126194,0.14334543900875882,0.15616321298867764,0.14706869716483048,0.13538010803552356,-0.0881679738761559,-0.04287850581377606,-0.057252723776970736,-0.27750480666524246,-0.3889889217810602,-0.5080111087374493,0.056884765625,0.232666015625,0.325439453125,0.37451171875,0.39013671875,0.40283203125,-0.416259765625,0.08609271523178808,-0.1479842524491104,0.014862514114810634,0.9851374858851893,1.740234375,-0.085205078125,0.392578125,-0.01806640625,0.0389404296875,0.05419921875,-0.6983642578125,0.369873046875,1.7392578125,0.9828791161839656,-0.9552598651081882,-0.03399761955626087,-0.29383220923490094,-0.005645924253059481,0.000946073793755913,-0.0034180730613116855,0.8017212439344462,0.6344187749870296,0.006775109103671377,-22.25,3.1875,2.4375,-22.30859375,3.7109375,-0.51171875,-12.625,0.0,0.0,0,0,1817,1099,1503,1
2,172330,21,-0.9626453444013794,-0.9832758568071536,-0.9800714133121738,-0.9094210638752404,-0.8506424146244698,-0.804681539353618,0.25717947935422836,0.1770378734702597,0.1533249916074099,0.14706869716483048,0.13538010803552356,0.13309121982482375,-0.08474990081484421,-0.04293954283272805,-0.12625507370220038,-0.3889889217810602,-0.5080111087374493,-0.5786004211554308,0.06982421875,0.247314453125,0.341064453125,0.39013671875,0.40283203125,0.4345703125,-1.02783203125,0.08847315897091586,-0.20075075533310954,0.015259254737998596,0.9755241554002503,1.707763671875,0.13427734375,0.34814453125,0.0078125,0.0445556640625,0.0501708984375,-0.67041015625,0.363525390625,1.69189453125,0.9810480056154057,-0.9182409131138035,-0.03634754478591266,-0.3943296609393597,-0.004608294930875576,0.0008239997558519242,-0.003357036042359691,0.836664937284463,-0.6246223334452345,0.9979857783745841,-23.6875,3.4375,2.4375,-21.71875,3.48046875,-3.01171875,-13.1875,0.0,0.0,0,0,1187,1081,1998,1
2,172381,22,-0.9749443037202064,-0.9857478560747093,-0.9479354228339488,-0.8506424146244698,-0.804681539353618,-0.7557603686635944,0.2099063081759087,0.16269417401654104,0.15616321298867764,0.13538010803552356,0.13309121982482375,0.10525833918271432,-0.07367168187505722,-0.04303109836115604,-0.27750480666524246,-0.5080111087374493,-0.5786004211554308,-0.6463209936826685,0.09912109375,0.27880859375,0.37451171875,0.40283203125,0.4345703125,0.4443359375,-0.321533203125,0.09192175054170354,-0.24246955778679768,0.048982207708975496,0.9645374919888913,1.682373046875,0.203857421875,0.249267578125,0.008056640625,0.031005859375,0.033447265625,-0.631103515625,0.3590087890625,1.64697265625,0.9804376354258858,-0.8785973693044832,-0.05816827906125065,-0.4739829706717124,-0.003936887722403638,0.0005798516800439467,-0.0033875545518356883,0.8108767967772454,0.49540696432386244,0.6062501907406842,-24.5625,3.5625,2.3125,-21.1484375,3.33984375,-4.44921875,-13.8125,0.0,0.0,0,0,1747,1094,1803,1
2,172432,23,-0.9743644520401623,-0.9864497817926573,-0.9094210638752404,-0.804681539353618,-0.7557603686635944,-0.727805413983581,0.21366008484145635,0.15720084231086154,0.14706869716483048,0.13309121982482375,0.10525833918271432,0.10483108005005036,-0.07031464583269753,-0.0466933194982757,-0.3889889217810602,-0.5786004211554308,-0.6463209936826685,-0.6777245399334696,0.112548828125,0.29345703125,0.39013671875,0.4345703125,0.4443359375,0.471923828125,-0.889892578125,0.08474990081484421,-0.2752769554734947,0.06659138767662587,0.9552903836176642,1.653076171875,-0.09521484375,0.22900390625,0.031005859375,0.0726318359375,0.0438232421875,-0.5487060546875,0.35498046875,1.579833984375,0.9798577837458419,-0.8434400463881344,-0.053743095187231055,-0.5345316934720908,-0.0033875545518356883,0.0005493331705679495,-0.003204443494979705,0.8648030030213324,0.3314920499282815,0.9991149632251961,-25.875,3.8125,2.0625,-20.2890625,3.19140625,-6.3203125,-14.375,0.0,0.0,0,0,1665,1067,1999,1
2,172482,24,-0.9730216376232185,-0.9880062257759331,-0.8506424146244698,-0.7557603686635944,-0.727805413983581,-0.684530167546617,0.2196722312082278,0.14334543900875882,0.13538010803552356,0.10525833918271432,0.10483108005005036,0.14178899502548295,-0.0705282753990295,-0.057252723776970736,-0.5080111087374493,-0.6463209936826685,-0.6777245399334696,-0.7150791955320902,0.12451171875,0.325439453125,0.40283203125,0.4443359375,0.471923828125,0.4794921875,-0.2509765625,0.07296975615710928,-0.3135776848658712,0.056276131473738826,0.9450972014526811,1.640625,0.062255859375,0.295166015625,0.070068359375,0.062744140625,0.05322265625,-0.5030517578125,0.35400390625,1.54150390625,0.9797051911984619,-0.7991576891384625,-0.026581621753593555,-0.6005127109591968,-0.0029297769096957305,0.000640888698995941,-0.0030823694570757164,0.7949156163212988,0.13080233161412397,0.5611743522446364,-26.6875,4.0,1.875,-19.80078125,3.08984375,-7.30078125,-15.0,0.0,0.0,0,0,1565,1102,1780,1
2,172533,25,-0.9783623767815179,-0.9800714133121738,-0.804681539353618,-0.727805413983581,-0.684530167546617,-0.6247138889736625,0.19882808923612172,0.1533249916074099,0.13309121982482375,0.10483108005005036,0.14178899502548295,0.14618366039002656,-0.05737479781487472,-0.12625507370220038,-0.5786004211554308,-0.6777245399334696,-0.7150791955320902,-0.7670522171697134,0.156982421875,0.341064453125,0.4345703125,0.471923828125,0.4794921875,0.49609375,-0.537353515625,0.06399731437116611,-0.3630481887264626,0.07242042298654133,0.9267555772576067,1.619873046875,0.080810546875,0.413818359375,0.080078125,0.0882568359375,0.050048828125,-0.558837890625,0.352294921875,1.4798583984375,0.9799798577837459,-0.7299417096469009,-0.02328562273018586,-0.6831263161107212,-0.002533036286507767,0.000640888698995941,-0.003143406476027711,0.8645283364360484,-0.04693746757408368,0.9991149632251961,-27.6875,4.1875,1.5,-19.0,3.01953125,-8.55859375,-15.625,0.0,0.0,0,0,1476,1067,1999,1
2,172590,26,-0.9766838587603381,-0.9479354228339488,-0.7557603686635944,-0.684530167546617,-0.6247138889736625,-0.5422528763695181,0.20728171636097292,0.15616321298867764,0.10525833918271432,0.14178899502548295,0.14618366039002656,0.1500900296029542,-0.056001464888454845,-0.27750480666524246,-0.6463209936826685,-0.7150791955320902,-0.7670522171697134,-0.826715903195288,0.169189453125,0.37451171875,0.4443359375,0.4794921875,0.49609375,0.49658203125,-0.019287109375,0.053346354564043096,-0.41578417310098575,0.09195226905117954,0.9032258064516129,1.593994140625,0.01123046875,0.346923828125,0.095947265625,0.0718994140625,0.041748046875,-0.6173095703125,0.349365234375,1.417724609375,0.9810480056154057,-0.6442457350383007,-0.024811548203985716,-0.7643971068453017,-0.0021362956633198035,0.0006103701895199438,-0.0032654805139316996,0.7988219855342265,0.5294045838801233,0.08731345561082797,-28.3125,4.25,1.25,-18.2109375,2.83984375,-9.46875,-16.1875,0.0,0.0,0,0,1764,1100,1543,1
2,172634,27,-0.9801019318216498,-0.9094210638752404,-0.727805413983581,-0.6247138889736625,-0.5422528763695181,-0.489486373485519,0.19272438734092226,0.14706869716483048,0.10483108005005036,0.14618366039002656,0.1500900296029542,0.17920468764305553,-0.04770043031098361,-0.3889889217810602,-0.6777245399334696,-0.7670522171697134,-0.826715903195288,-0.8533890804773094,0.201416015625,0.39013671875,0.471923828125,0.49609375,0.49658203125,0.50341796875,-0.216796875,0.03497421185949278,-0.4555497909482101,0.09958189642017884,0.8839381084627826,1.550048828125,-0.056640625,0.191162109375,0.109619140625,0.0902099609375,0.0462646484375,-0.55908203125,0.3443603515625,1.3121337890625,0.9835810419019135,-0.5715201269569994,-0.003662221137119663,-0.8205816827906125,-0.0019226660969878231,0.0007629627368999298,-0.0033875545518356883,0.8596148564104129,-0.15970336008789332,0.9985656300546282,-29.0625,4.4375,0.75,-16.87109375,2.51953125,-10.73046875,-16.8125,0.0,0.0,0,0,1420,1070,1999,1
2,172685,28,-0.9826654866176336,-0.8506424146244698,-0.684530167546617,-0.5422528763695181,-0.489486373485519,-0.45835749382000185,0.1803949095126194,0.13538010803552356,0.14178899502548295,0.1500900296029542,0.17920468764305553,0.20700704977568896,-0.04287850581377606,-0.5080111087374493,-0.7150791955320902,-0.826715903195288,-0.8533890804773094,-0.8643147068697165,0.232666015625,0.40283203125,0.4794921875,0.49658203125,0.50341796875,0.498291015625,0.16162109375,0.019531846064638203,-0.47740104373302406,0.10675374614703818,0.8719443342387158,1.527099609375,0.071044921875,0.16552734375,0.119873046875,0.052001953125,0.0430908203125,-0.44873046875,0.342529296875,1.2537841796875,0.9850154118472854,-0.5269325846125675,0.012909329508346813,-0.8498184148686179,-0.0017700735496078372,0.0008239997558519242,-0.0033875545518356883,0.804345835749382,0.3933530686361278,-0.040131839960936305,-29.5625,4.5,0.4375,-16.12890625,2.3515625,-11.328125,-17.375,0.0,0.0,0,0,1696,1097,1479,1
2,172735,29,-0.9832758568071536,-0.804681539353618,-0.6247138889736625,-0.489486373485519,-0.45835749382000185,-0.43543809320352794,0.1770378734702597,0.13309121982482375,0.14618366039002656,0.17920468764305553,0.20700704977568896,0.22711874752037112,-0.04293954283272805,-0.5786004211554308,-0.7670522171697134,-0.8533890804773094,-0.8643147068697165,-0.8710898159733879,0.247314453125,0.4345703125,0.49609375,0.50341796875,0.498291015625,0.491455078125,0.22314453125,0.007354960783715323,-0.49497970519119844,0.11767937253944517,0.8608661152989288,1.5107421875,-0.0400390625,0.169189453125,0.068359375,0.0799560546875,0.060302734375,-0.3956298828125,0.3421630859375,1.2158203125,0.9857478560747093,-0.4882961516159551,0.019409772026734214,-0.8724631488998077,-0.0018311105685598315,0.0010071108127079073,-0.003662221137119663,0.8639484847560045,0.002044740134891812,0.41157261879329815,-29.9375,4.5625,0.0625,-15.640625,2.28125,-11.66015625,-18.0,0.0,0.0,0,0,1501,1068,1705,1
2,172785,30,-0.9857478560747093,-0.7557603686635944,-0.5422528763695181,-0.45835749382000185,-0.43543809320352794,-0.42448194830164493,0.16269417401654104,0.10525833918271432,0.1500900296029542,0.20700704977568896,0.22711874752037112,0.25168614764854885,-0.04303109836115604,-0.6463209936826685,-0.826715903195288,-0.8643147068697165,-0.8710898159733879,-0.869747001556444,0.27880859375,0.4443359375,0.49658203125,0.498291015625,0.491455078125,0.490234375,0.039794921875,-0.0020142216254158147,-0.5151219214453566,0.12054811243018891,0.8485976744895779,1.49169921875,0.0224609375,0.226318359375,0.075927734375,0.041015625,0.0421142578125,-0.35205078125,0.3426513671875,1.1734619140625,0.9863582262642293,-0.4445326090273751,0.027771843623157447,-0.8953215124973296,-0.00173955504013184,0.0010376293221839045,-0.0035401470992156743,0.8715170751060518,0.10202337717825861,0.9971007415997802,-30.4375,4.6875,-0.5,-15.1015625,2.171875,-11.96875,-18.625,0.0,0.0,0,0,1551,1064,1998,1
2,172835,31,-0.9864497817926573,-0.727805413983581,-0.489486373485519,-0.43543809320352794,-0.42448194830164493,-0.3892330698568682,0.15720084231086154,0.10483108005005036,0.17920468764305553,0.22711874752037112,0.25168614764854885,0.2681966612750633,-0.0466933194982757,-0.6777245399334696,-0.8533890804773094,-0.8710898159733879,-0.869747001556444,-0.881221961119419,0.29345703125,0.471923828125,0.50341796875,0.491455078125,0.490234375,0.48193359375,0.27001953125,-0.009216589861751152,-0.5407269508957182,0.1270790734580523,0.8314767906735435,1.47412109375,0.040771484375,0.305908203125,0.032958984375,0.03662109375,0.0335693359375,-0.311767578125,0.3421630859375,1.1480712890625,0.9864803003021333,-0.3870052186651204,0.026337473677785578,-0.9216895046845912,-0.0017090365306558428,0.0012512588885158849,-0.0038758507034516434,0.7988219855342265,0.3359172338023011,-0.12909329508346812,-30.75,4.75,-0.875,-14.76953125,2.1484375,-12.01953125,-19.1875,0.0,0.0,0,0,1667,1100,1435,1
2,172891,32,-0.9880062257759331,-0.684530167546617,-0.45835749382000185,-0.42448194830164493,-0.3892330698568682,-0.34955900753807184,0.14334543900875882,0.14178899502548295,0.20700704977568896,0.25168614764854885,0.2681966612750633,0.2804956205938902,-0.057252723776970736,-0.7150791955320902,-0.8643147068697165,-0.869747001556444,-0.881221961119419,-0.8939481795709098,0.325439453125,0.4794921875,0.498291015625,0.490234375,0.48193359375,0.483154296875,-0.036865234375,-0.014496292001098667,-0.575884273812067,0.13177892391735588,0.8067262794885098,1.443115234375,0.033935546875,0.334716796875,0.0517578125,0.088134765625,0.04736328125,-0.3482666015625,0.3408203125,1.107421875,0.9865413373210853,-0.30564287240211185,0.020264290292062136,-0.9519333475753045,-0.0014648884548478652,0.0012207403790398877,-0.003784295175023652,0.8545793023468734,-0.35145115512558367,0.9985961485641042,-31.3125,4.8125,-1.5,-14.25,2.05078125,-12.03125,-19.8125,0.0,0.0,0,0,1324,1072,1999,1
2,172937,33,-0.9800714133121738,-0.6247138889736625,-0.43543809320352794,-0.3892330698568682,-0.34955900753807184,-0.2850123599963378,0.1533249916074099,0.14618366039002656,0.22711874752037112,0.2681966612750633,0.2804956205938902,0.26581621753593554,-0.12625507370220038,-0.7670522171697134,-0.8710898159733879,-0.881221961119419,-0.8939481795709098,-0.9209265419476913,0.341064453125,0.49609375,0.491455078125,0.48193359375,0.483154296875,0.49267578125,-0.3095703125,-0.015411847285378583,-0.6146732993560594,0.14624469740897855,0.7749565111239967,1.4013671875,0.12548828125,0.335693359375,0.03759765625,0.0526123046875,0.023681640625,-0.3736572265625,0.3367919921875,1.0455322265625,0.9870601519821772,-0.2098452711569567,-0.007751701406903287,-0.977690969573046,-0.0011902218695638905,0.0011597033600878933,-0.003814813684499649,0.8757286294137394,0.2436902981658376,0.9993591113010041,-32.0625,4.9375,-1.9375,-13.5,1.640625,-12.12109375,-20.375,0.0,0.0,0,0,1621,1062,1999,1
2,172988,34,-0.9479354228339488,-0.5422528763695181,-0.42448194830164493,-0.34955900753807184,-0.2850123599963378,-0.22959074678792687,0.15616321298867764,0.1500900296029542,0.25168614764854885,0.2804956205938902,0.26581621753593554,0.2589190343943602,-0.27750480666524246,-0.826715903195288,-0.869747001556444,-0.8939481795709098,-0.9209265419476913,-0.9382305368205817,0.37451171875,0.49658203125,0.490234375,0.483154296875,0.49267578125,0.513671875,-0.685546875,-0.020050660725730154,-0.65248573259682,0.15631580553605762,0.7412335581530198,1.328369140625,-0.047607421875,0.336181640625,0.034423828125,0.1011962890625,0.0374755859375,-0.4090576171875,0.32958984375,0.9449462890625,0.9882808923612171,-0.11023285622730186,-0.02673421430097354,-0.9935605945005646,-0.0008239997558519242,0.000946073793755913,-0.003357036042359691,0.8717612231818598,0.43061616870632036,0.9992980742820521,-33.0625,5.125,-2.5625,-12.26171875,1.1015625,-12.109375,-21.0,0.0,0.0,0,0,1715,1064,1999,1
2,173043,35,-0.9094210638752404,-0.489486373485519,-0.3892330698568682,-0.2850123599963378,-0.22959074678792687,-0.162938322092349,0.14706869716483048,0.17920468764305553,0.2681966612750633,0.26581621753593554,0.2589190343943602,0.27771843623157444,-0.3889889217810602,-0.8533890804773094,-0.881221961119419,-0.9209265419476913,-0.9382305368205817,-0.9467452009643849,0.39013671875,0.50341796875,0.48193359375,0.49267578125,0.513671875,0.521240234375,-0.243408203125,-0.0314951017792291,-0.6877651295510727,0.15466780602435376,0.7085787530137028,1.2783203125,-0.01025390625,0.297607421875,0.045654296875,0.107421875,0.0372314453125,-0.401611328125,0.324951171875,0.8721923828125,0.9895321512497329,-0.012146366771446883,-0.021301919614246042,-0.99969481490524,-0.0005798516800439467,0.0010376293221839045,-0.0033875545518356883,0.8741111484115116,0.2902615436262093,0.9993591113010041,-33.6875,5.1875,-3.0625,-11.37109375,0.66015625,-12.1015625,-21.625,-0.0625,0.0,0,0,1645,1062,1999,1
2,173088,36,-0.8506424146244698,-0.45835749382000185,-0.34955900753807184,-0.22959074678792687,-0.162938322092349,-0.12268440809350871,0.13538010803552356,0.20700704977568896,0.2804956205938902,0.2589190343943602,0.27771843623157444,0.27265236365855894,-0.5080111087374493,-0.8643147068697165,-0.8939481795709098,-0.9382305368205817,-0.9467452009643849,-0.9542527542954802,0.40283203125,0.498291015625,0.483154296875,0.513671875,0.521240234375,0.538330078125,-0.5576171875,-0.03567613757744072,-0.7149266029847102,0.16428113650929288,0.6787011322367016,1.202880859375,0.044189453125,0.25048828125,0.078369140625,0.119384765625,0.048095703125,-0.36328125,0.3184814453125,0.7696533203125,0.9914242988372448,0.06732383190404981,-0.04159672841578417,-0.9968565935239723,-0.0003967406231879635,0.0008850367748039186,-0.003021332438123722,0.8753013702810755,0.36466566972869047,0.9994201483199561,-34.5625,5.3125,-3.6875,-10.109375,0.078125,-11.9296875,-22.1875,-0.125,0.0,0,0,1682,1062,1999,1
2,173139,37,-0.804681539353618,-0.43543809320352794,-0.2850123599963378,-0.162938322092349,-0.12268440809350871,-0.07486190374462111,0.13309121982482375,0.22711874752037112,0.26581621753593554,0.27771843623157444,0.27265236365855894,0.26560258796960357,-0.5786004211554308,-0.8710898159733879,-0.9209265419476913,-0.9467452009643849,-0.9542527542954802,-0.9611804559465316,0.4345703125,0.491455078125,0.49267578125,0.521240234375,0.538330078125,0.54296875,-0.15087890625,-0.04016235847041231,-0.7378765221106601,0.1791131321146275,0.6494949186681722,1.156005859375,0.0400390625,0.28564453125,0.091552734375,0.1053466796875,0.03955078125,-0.310302734375,0.3150634765625,0.706787109375,0.9926145207068087,0.13852351451155126,-0.07003997924741355,-0.9878841517380291,-0.00024414807580797754,0.0009155552842799158,-0.0030518509475997192,0.8754539628284554,0.2748802148503067,0.9994201483199561,-35.125,5.3125,-4.1875,-9.33984375,-0.30859375,-11.76953125,-22.8125,-0.1875,0.0,0,0,1637,1062,1999,1
2,173179,38,-0.7557603686635944,-0.42448194830164493,-0.22959074678792687,-0.12268440809350871,-0.07486190374462111,-0.0347605822931608,0.10525833918271432,0.25168614764854885,0.2589190343943602,0.27265236365855894,0.26560258796960357,0.26798303170873133,-0.6463209936826685,-0.869747001556444,-0.9382305368205817,-0.9542527542954802,-0.9611804559465316,-0.9627979369487594,0.4443359375,0.490234375,0.513671875,0.538330078125,0.54296875,0.546142578125,-0.1044921875,-0.0466933194982757,-0.7566454054383984,0.19083223975341043,0.6236457411420027,1.112548828125,-0.04345703125,0.254150390625,0.093017578125,0.1024169921875,0.0479736328125,-0.2900390625,0.312255859375,0.6558837890625,0.9933164464247566,0.19919431134983367,-0.09103671376689962,-0.9757377849665823,-0.00012207403790398877,0.0008545182653279214,-0.0029297769096957305,0.8747520371105075,0.3933530686361278,0.9993896298104801,-35.5625,5.3125,-4.625,-8.71875,-0.6484375,-11.51953125,-23.375,-0.3125,0.0,0,0,1696,1062,1999,1
2,173232,39,-0.727805413983581,-0.3892330698568682,-0.162938322092349,-0.07486190374462111,-0.0347605822931608,0.01834162419507431,0.10483108005005036,0.2681966612750633,0.27771843623157444,0.26560258796960357,0.26798303170873133,0.27692495498519853,-0.6777245399334696,-0.881221961119419,-0.9467452009643849,-0.9611804559465316,-0.9627979369487594,-0.9607226783043916,0.471923828125,0.48193359375,0.521240234375,0.54296875,0.546142578125,0.560302734375,-0.45458984375,-0.062105166783654284,-0.7799920651875363,0.20093386638996552,0.5894039735099338,1.043212890625,0.032470703125,0.30810546875,0.073486328125,0.115234375,0.0572509765625,-0.2860107421875,0.307861328125,0.580810546875,0.9918820764793848,0.2783898434400464,-0.10492263557847835,-0.9547105319376201,3.051850947599719e-05,0.0008545182653279214,-0.0028077028717917417,0.8747520371105075,0.40736106448561055,0.9994201483199561,-36.25,5.3125,-5.25,-7.80859375,-1.2109375,-11.01953125,-24.0,-0.375,0.0,0,0,1703,1062,1999,1
2,173290,40,-0.684530167546617,-0.34955900753807184,-0.12268440809350871,-0.0347605822931608,0.01834162419507431,0.1129795220801416,0.14178899502548295,0.2804956205938902,0.27265236365855894,0.26798303170873133,0.27692495498519853,0.26557206946012757,-0.7150791955320902,-0.8939481795709098,-0.9542527542954802,-0.9627979369487594,-0.9607226783043916,-0.9574571977904599,0.4794921875,0.483154296875,0.538330078125,0.546142578125,0.560302734375,0.571533203125,-0.367919921875,-0.07586901455732901,-0.8122196111941893,0.21805475020599993,0.5357219153416547,0.968994140625,0.09716796875,0.373779296875,0.099365234375,0.1102294921875,0.03466796875,-0.346435546875,0.3033447265625,0.509033203125,0.9905697805719169,0.38947721793267615,-0.14310129093295085,-0.9098483230079043,0.0003051850947599719,0.0007324442274239326,-0.002563554795983764,0.8769493697927793,0.35160374767296365,0.9994811853389081,-36.875,5.3125,-5.875,-6.9296875,-1.69921875,-10.37890625,-24.5625,-0.5,0.0,0,0,1675,1061,1999,1
2,173331,41,-0.6247138889736625,-0.2850123599963378,-0.07486190374462111,0.01834162419507431,0.1129795220801416,0.18018127994628744,0.14618366039002656,0.26581621753593554,0.26560258796960357,0.27692495498519853,0.26557206946012757,0.24216437269203772,-0.7670522171697134,-0.9209265419476913,-0.9611804559465316,-0.9607226783043916,-0.9574571977904599,-0.9533677175206763,0.49609375,0.49267578125,0.54296875,0.560302734375,0.571533203125,0.5732421875,-0.059326171875,-0.07641834772789698,-0.8336741233558153,0.2358165227210303,0.4935148167363506,0.90234375,0.1396484375,0.341796875,0.09326171875,0.1258544921875,0.0477294921875,-0.3670654296875,0.298828125,0.447265625,0.9895016327402569,0.4631183812982574,-0.1923581652272103,-0.8651692251350444,0.0004882961516159551,0.0007019257179479354,-0.0025940733054597613,0.8773766289254433,0.3100070192571795,0.9995117038483841,-37.25,5.25,-6.3125,-6.16015625,-2.05078125,-9.76953125,-25.125,-0.6875,0.0,0,0,1655,1061,1999,1
2,173382,42,-0.5422528763695181,-0.22959074678792687,-0.0347605822931608,0.1129795220801416,0.18018127994628744,0.2556535538804285,0.1500900296029542,0.2589190343943602,0.26798303170873133,0.26557206946012757,0.24216437269203772,0.2053285317545091,-0.826715903195288,-0.9382305368205817,-0.9627979369487594,-0.9574571977904599,-0.9533677175206763,-0.9447004608294931,0.49658203125,0.513671875,0.546142578125,0.571533203125,0.5732421875,0.573974609375,-0.02001953125,-0.0750755333109531,-0.8532975249488814,0.26010925626392406,0.445631275368511,0.835205078125,0.18212890625,0.343017578125,0.117431640625,0.120849609375,0.04931640625,-0.310302734375,0.29443359375,0.39013671875,0.988799707022309,0.5329142124698629,-0.25681325724051635,-0.8062379833368938,0.0006714072084719382,0.0005798516800439467,-0.0025025177770317698,0.8773155919064913,0.2650837733085116,0.99954222235786,-37.625,5.1875,-6.6875,-5.44921875,-2.390625,-9.078125,-25.75,-0.8125,0.0,0,0,1632,1061,1999,1
2,173432,43,-0.489486373485519,-0.162938322092349,0.01834162419507431,0.18018127994628744,0.2556535538804285,0.3252052369762261,0.17920468764305553,0.27771843623157444,0.27692495498519853,0.24216437269203772,0.2053285317545091,0.1672414319284646,-0.8533890804773094,-0.9467452009643849,-0.9607226783043916,-0.9533677175206763,-0.9447004608294931,-0.9307229834894863,0.50341796875,0.521240234375,0.560302734375,0.5732421875,0.573974609375,0.5810546875,-0.231689453125,-0.07678456984160893,-0.870265816217536,0.28330332346568193,0.39558091982787563,0.739501953125,0.128173828125,0.327880859375,0.120361328125,0.116455078125,0.049560546875,-0.3072509765625,0.289306640625,0.3140869140625,0.9883419293801691,0.5949888607440412,-0.3193151646473586,-0.7375713370159002,0.0008545182653279214,0.0004882961516159551,-0.0024414807580797754,0.8781090731528672,0.2945951719718009,0.99954222235786,-38.0625,5.0625,-7.25,-4.5,-2.859375,-8.0,-26.3125,-1.0,0.0,0,0,1647,1060,1999,1
2,173484,44,-0.45835749382000185,-0.12268440809350871,0.1129795220801416,0.2556535538804285,0.3252052369762261,0.40589617603076267,0.20700704977568896,0.27265236365855894,0.26557206946012757,0.2053285317545091,0.1672414319284646,0.14181951353495895,-0.8643147068697165,-0.9542527542954802,-0.9574571977904599,-0.9447004608294931,-0.9307229834894863,-0.9028595843379009,0.498291015625,0.538330078125,0.571533203125,0.573974609375,0.5810546875,0.580322265625,0.028564453125,-0.08392590105899228,-0.8843043305764946,0.304422132023072,0.34394360179448835,0.676025390625,0.09326171875,0.3388671875,0.103271484375,0.1229248046875,0.035400390625,-0.309326171875,0.2861328125,0.271484375,0.989043855098117,0.6500137333292642,-0.3735770744956816,-0.6617328409680471,0.0010376293221839045,0.0003967406231879635,-0.0023194067201757866,0.8761864070558794,0.282845545823542,0.99954222235786,-38.375,5.0,-7.5625,-3.96875,-3.171875,-7.171875,-26.875,-1.1875,0.0,0,0,1641,1061,1999,1
2,173534,45,-0.43543809320352794,-0.07486190374462111,0.18018127994628744,0.3252052369762261,0.40589617603076267,0.48286385692922756,0.22711874752037112,0.26560258796960357,0.24216437269203772,0.1672414319284646,0.14181951353495895,0.11465804010132145,-0.8710898159733879,-0.9611804559465316,-0.9533677175206763,-0.9307229834894863,-0.9028595843379009,-0.8681600390636921,0.491455078125,0.54296875,0.5732421875,0.5810546875,0.580322265625,0.584228515625,-0.127685546875,-0.09173863948484756,-0.8971831415753655,0.32142094180120245,0.28867458113345745,0.583984375,0.124755859375,0.416259765625,0.09765625,0.11181640625,0.045166015625,-0.268310546875,0.2823486328125,0.2122802734375,0.9910275582140569,0.6997283852656636,-0.423841059602649,-0.5751213110751671,0.0012512588885158849,0.0003662221137119663,-0.002227851191747795,0.8753929258095035,0.24152348399304177,0.99954222235786,-38.6875,4.8125,-8.0,-3.21875,-3.53125,-5.8984375,-27.4375,-1.4375,0.0,0,0,1620,1062,1999,1
2,173585,46,-0.42448194830164493,-0.0347605822931608,0.2556535538804285,0.40589617603076267,0.48286385692922756,0.5772270882290109,0.25168614764854885,0.26798303170873133,0.2053285317545091,0.14181951353495895,0.11465804010132145,0.09698782311471908,-0.869747001556444,-0.9627979369487594,-0.9447004608294931,-0.9028595843379009,-0.8681600390636921,-0.8107852412488175,0.490234375,0.546142578125,0.573974609375,0.580322265625,0.584228515625,0.581787109375,0.076904296875,-0.10492263557847835,-0.9083834345530565,0.3357036042359691,0.2261421552171392,0.52392578125,0.0771484375,0.431640625,0.104736328125,0.1103515625,0.0435791015625,-0.2940673828125,0.2802734375,0.1827392578125,0.9934385204626606,0.7464217047639393,-0.467940305795465,-0.47315897091586046,0.0014648884548478652,0.00027466658528397473,-0.002075258644367809,0.86977752006592,0.22995696890163883,0.99954222235786,-38.9375,4.6875,-8.25,-2.83984375,-3.69140625,-4.96875,-28.0,-1.6875,0.0,0,0,1614,1065,1999,1
2,173638,47,-0.3892330698568682,0.01834162419507431,0.3252052369762261,0.48286385692922756,0.5772270882290109,0.6625568407238991,0.2681966612750633,0.27692495498519853,0.1672414319284646,0.11465804010132145,0.09698782311471908,0.0804162724692526,-0.881221961119419,-0.9607226783043916,-0.9307229834894863,-0.8681600390636921,-0.8107852412488175,-0.7446821497238075,0.48193359375,0.560302734375,0.5810546875,0.584228515625,0.581787109375,0.583251953125,-0.05126953125,-0.12109744560075686,-0.9158299508651997,0.3463240455336161,0.16318247016815698,0.4345703125,0.053466796875,0.41796875,0.109375,0.1251220703125,0.042236328125,-0.3267822265625,0.2774658203125,0.1380615234375,0.9920346690267647,0.7795037690359203,-0.5070650349436934,-0.36774803918576615,0.0017090365306558428,0.00027466658528397473,-0.001892147587511826,0.8605304116946928,0.17444380016479996,0.9994811853389081,-39.25,4.5,-8.625,-2.26171875,-3.921875,-3.37890625,-28.5,-1.875,0.0,0,0,1587,1069,1999,1
2,173707,48,-0.34955900753807184,0.1129795220801416,0.40589617603076267,0.5772270882290109,0.6625568407238991,0.7630848109378338,0.2804956205938902,0.26557206946012757,0.14181951353495895,0.09698782311471908,0.0804162724692526,0.060426648762474444,-0.8939481795709098,-0.9574571977904599,-0.9028595843379009,-0.8107852412488175,-0.7446821497238075,-0.6434827723014008,0.483154296875,0.571533203125,0.580322265625,0.581787109375,0.583251953125,0.58251953125,0.02392578125,-0.1466719565416425,-0.9180883205664235,0.35804315317239904,0.08624530777916807,0.3623046875,-0.00439453125,0.386474609375,0.095703125,0.1146240234375,0.030517578125,-0.279296875,0.27587890625,0.1029052734375,0.9865413373210853,0.7990050965910825,-0.5517441328165532,-0.239112521744438,0.0019226660969878231,0.00018311105685598315,-0.0016174810022278512,0.8183843501083408,0.13403729361857966,0.9987487411114842,-39.5,4.3125,-8.875,-1.7890625,-4.0390625,-1.62890625,-29.0625,-2.1875,0.0,0,0,1567,1090,1999,1
2,173738,49,-0.2850123599963378,0.18018127994628744,0.48286385692922756,0.6625568407238991,0.7630848109378338,0.7991576891384625,0.26581621753593554,0.24216437269203772,0.11465804010132145,0.0804162724692526,0.060426648762474444,0.0739158299508652,-0.9209265419476913,-0.9533677175206763,-0.8681600390636921,-0.7446821497238075,-0.6434827723014008,-0.5965453047273171,0.49267578125,0.5732421875,0.584228515625,0.583251953125,0.58251953125,0.578125,0.1455078125,-0.15945921201208532,-0.9172643208105716,0.3607898190252388,0.05484176152836696,0.336669921875,-0.04150390625,0.36328125,0.0673828125,0.1051025390625,0.0416259765625,-0.2652587890625,0.2757568359375,0.0855712890625,0.9846491897335734,0.8013245033112583,-0.5680104983672597,-0.18774987029633472,0.002075258644367809,0.00024414807580797754,-0.0015564439832758568,0.7410809656056399,0.17099520859401227,0.9967040009765923,-39.625,4.1875,-9.0,-1.55078125,-4.05859375,-0.53125,-29.5625,-2.4375,0.0,0,0,1585,1129,1998,1
2,173788,50,-0.22959074678792687,0.2556535538804285,0.5772270882290109,0.7630848109378338,0.7991576891384625,0.859309671315653,0.2589190343943602,0.2053285317545091,0.09698782311471908,0.060426648762474444,0.0739158299508652,0.0838038270210883,-0.9382305368205817,-0.9447004608294931,-0.8107852412488175,-0.6434827723014008,-0.5965453047273171,-0.5045319986571856,0.513671875,0.573974609375,0.581787109375,0.58251953125,0.578125,0.573486328125,0.154296875,-0.18411816766869107,-0.91323587755974,0.36341441084017456,0.0025025177770317698,0.331787109375,-0.060546875,0.42138671875,0.059326171875,0.109375,0.050537109375,-0.25537109375,0.276123046875,0.07763671875,0.9855647450178533,0.8000122074037904,-0.5910214545121616,-0.10342722861415449,0.0022583697012237922,0.00024414807580797754,-0.0013122959074678793,0.4055909909360027,-0.042756431775872066,0.9955442976165044,-39.75,4.0625,-9.0625,-1.4296875,-4.03125,0.5703125,-30.125,-2.75,0.0,0,0,1478,1297,1997,1
2,173838,51,-0.162938322092349,0.3252052369762261,0.6625568407238991,0.7991576891384625,0.859309671315653,0.91308328501236,0.27771843623157444,0.1672414319284646,0.0804162724692526,0.0739158299508652,0.0838038270210883,0.08246101260414442,-0.9467452009643849,-0.9307229834894863,-0.7446821497238075,-0.5965453047273171,-0.5045319986571856,-0.39930417798394724,0.521240234375,0.5810546875,0.583251953125,0.578125,0.573486328125,0.569091796875,0.138671875,-0.20596942045350505,-0.9069795831171605,0.3631092257454146,-0.05597094637897885,0.36962890625,0.0087890625,0.44091796875,0.07568359375,0.1212158203125,0.0694580078125,-0.283203125,0.2781982421875,0.0679931640625,0.9928586687826166,0.7880794701986755,-0.6155278176213874,-0.007751701406903287,0.0024719992675557726,0.0003051850947599719,-0.0010681478316599017,0.1718497268593402,-0.3144016846217231,0.9969176305429243,-39.9375,3.875,-9.1875,-1.28125,-4.03125,2.28125,-30.625,-3.0625,0.0,0,0,1342,1414,1998,1
2,173879,52,-0.12268440809350871,0.40589617603076267,0.7630848109378338,0.859309671315653,0.91308328501236,0.9491561632129887,0.27265236365855894,0.14181951353495895,0.060426648762474444,0.0838038270210883,0.08246101260414442,0.08841212195196387,-0.9542527542954802,-0.9028595843379009,-0.6434827723014008,-0.5045319986571856,-0.39930417798394724,-0.3021027253028962,0.538330078125,0.580322265625,0.58251953125,0.573486328125,0.569091796875,0.563720703125,0.178955078125,-0.22217474898525957,-0.8992278817102572,0.3619800408948027,-0.10473952452162237,0.41943359375,0.08349609375,0.42578125,0.063232421875,0.11962890625,0.0487060546875,-0.3162841796875,0.2806396484375,0.0679931640625,0.9953917050691244,0.7691885128330332,-0.6349681081575976,0.0717184972685934,0.0025940733054597613,0.00027466658528397473,-0.0008239997558519242,-0.4915921506393628,-0.6010620441297647,0.9958189642017884,-40.0625,3.75,-9.1875,-1.26171875,-3.96875,3.51953125,-31.125,-3.375,0.0,0,0,1199,1745,1997,1
2,173930,53,-0.07486190374462111,0.48286385692922756,0.7991576891384625,0.91308328501236,0.9491561632129887,0.9757683034760583,0.26560258796960357,0.11465804010132145,0.0739158299508652,0.08246101260414442,0.08841212195196387,0.10190130314035463,-0.9611804559465316,-0.8681600390636921,-0.5965453047273171,-0.39930417798394724,-0.3021027253028962,-0.19357890560625018,0.54296875,0.584228515625,0.578125,0.569091796875,0.563720703125,0.5576171875,0.195068359375,-0.24561296426282542,-0.8878444776757103,0.358195745719779,-0.15201269569994202,0.48193359375,-0.1943359375,0.2509765625,0.023681640625,0.1124267578125,0.0404052734375,-0.3592529296875,0.28369140625,0.0712890625,0.9874568926053652,0.7445905941953795,-0.652150028992584,0.1423993652150029,0.0027771843623157445,0.0003662221137119663,-0.0005188146610919523,-0.6262703329569383,-0.31247901852473525,0.9961241492965484,-40.1875,3.625,-9.125,-1.26953125,-3.76953125,4.83984375,-31.625,-3.75,0.0,0,0,1343,1813,1998,1
2,173979,54,-0.0347605822931608,0.5772270882290109,0.859309671315653,0.9491561632129887,0.9757683034760583,0.9824823755607777,0.26798303170873133,0.09698782311471908,0.0838038270210883,0.08841212195196387,0.10190130314035463,0.13287759025849177,-0.9627979369487594,-0.8107852412488175,-0.5045319986571856,-0.3021027253028962,-0.19357890560625018,-0.130649739066744,0.546142578125,0.581787109375,0.573486328125,0.563720703125,0.5576171875,0.549560546875,0.26171875,-0.28650776696066166,-0.8739280373546556,0.3596911526841029,-0.1574144718771935,0.597900390625,-0.459716796875,-0.029296875,-0.02392578125,0.1065673828125,0.0458984375,-0.323486328125,0.2899169921875,0.083740234375,0.9751274147770623,0.7348246711630604,-0.6673787652211066,0.12082277901547288,0.002868739890743736,0.0004272591326639607,-0.0003662221137119663,-0.6639606921597949,-0.06311227759636219,0.9897762993255409,-40.3125,3.4375,-8.9375,-1.37109375,-3.26171875,6.921875,-32.125,-4.0625,0.0,0,0,1468,1831,1994,1
2,174030,55,0.01834162419507431,0.6625568407238991,0.91308328501236,0.9757683034760583,0.9824823755607777,0.9725638599810785,0.27692495498519853,0.0804162724692526,0.08246101260414442,0.10190130314035463,0.13287759025849177,0.1869258705404828,-0.9607226783043916,-0.7446821497238075,-0.39930417798394724,-0.19357890560625018,-0.130649739066744,-0.13840144047364727,0.560302734375,0.583251953125,0.569091796875,0.5576171875,0.549560546875,0.54345703125,0.2001953125,-0.3464461195715201,-0.8533890804773094,0.37556077761162143,-0.1033051545762505,0.666748046875,-0.57470703125,-0.419921875,-0.027099609375,0.0992431640625,0.0318603515625,-0.1300048828125,0.2939453125,0.090087890625,0.9696340830713828,0.7409588915677359,-0.6709494308297983,-0.028717917416913357,0.0029297769096957305,0.000640888698995941,-0.0003662221137119663,-0.4448683126316111,-0.20252082888271736,0.9935911130100405,-40.4375,3.3125,-8.8125,-1.41015625,-2.859375,8.05859375,-32.5625,-4.4375,0.0,0,0,1398,1722,1996,1
