t_ms,msp,motor,servo0,servo1,gyro_p,gyro_q,gyro_r,acc_x,acc_y,acc_z,qw,qx,qy,qz,pos_n,pos_e,pos_d,vel_n,vel_e,vel_d,tgtpos_n,tgtpos_e,tgtpos_d,rcData0,rcData1,rcData2,rcData3
302287.3200,3.0000,1551.0000,1466.0000,1518.0000,-2.0000,0.0000,16.0000,18.0000,-246.0000,1661.0000,0.2154,-0.0599,-0.0662,0.9724,133.2900,-65.2200,-89.9400,-21.6700,1.6600,2.0700,0.0000,0.0000,-0.0000,1500.0000,1500.0000,1500.0000,1576.0000
302304.0330,3.0000,1551.0000,1466.0000,1518.0000,-3.0000,0.0000,18.0000,6.0000,-194.0000,1727.0000,0.2129,-0.0605,-0.0667,0.9729,132.8100,-65.1700,-89.9100,-21.7200,1.6600,2.0900,0.0000,0.0000,-0.0000,1500.0000,1500.0000,1500.0000,1576.0000
302320.6890,3.0000,1551.0000,1465.0000,1517.0000,-5.0000,1.0000,19.0000,24.0000,-176.0000,1788.0000,0.2102,-0.0611,-0.0675,0.9734,132.3600,-65.1200,-89.8700,-21.7500,1.6700,2.1100,0.0000,0.0000,-0.0000,1500.0000,1500.0000,1500.0000,1576.0000
302337.2920,3.0000,1551.0000,1465.0000,1517.0000,-4.0000,1.0000,19.0000,47.0000,-120.0000,1791.0000,0.2075,-0.0617,-0.0684,0.9739,131.9100,-65.0800,-89.8400,-21.7800,1.6800,2.1200,0.0000,0.0000,-0.0000,1500.0000,1500.0000,1500.0000,1576.0000
302353.8110,3.0000,1550.0000,1466.0000,1518.0000,-3.0000,1.0000,20.0000,131.0000,-20.0000,1703.0000,0.2049,-0.0621,-0.0693,0.9744,131.9100,-65.0800,-89.8400,-21.7800,1.6800,2.1200,0.0000,0.0000,-0.0000,1500.0000,1500.0000,1500.0000,1575.0000
302370.3070,3.0000,1551.0000,1467.0000,1519.0000,-2.0000,0.0000,18.0000,151.0000,4.0000,1731.0000,0.2023,-0.0622,-0.0702,0.9748,131.4900,-65.0300,-89.8100,-21.7900,1.6900,2.1500,0.0000,0.0000,-0.0000,1498.0000,1500.0000,1500.0000,1576.0000
302386.9890,3.0000,1551.0000,1467.0000,1519.0000,-2.0000,1.0000,16.0000,107.0000,-54.0000,1878.0000,0.1999,-0.0621,-0.0710,0.9753,131.0300,-64.9800,-89.7800,-21.8400,1.7000,2.1700,0.0000,0.0000,-0.0000,1500.0000,1500.0000,1500.0000,1576.0000
302403.5760,3.0000,1551.0000,1466.0000,1520.0000,-2.0000,2.0000,13.0000,-23.0000,27.0000,1920.0000,0.1980,-0.0624,-0.0715,0.9756,130.5600,-64.9400,-89.7400,-21.8900,1.7100,2.1900,0.0000,0.0000,-0.0000,1500.0000,1500.0000,1500.0000,1576.0000
302420.2290,3.0000,1551.0000,1466.0000,1520.0000,-1.0000,2.0000,9.0000,32.0000,105.0000,1838.0000,0.1965,-0.0626,-0.0722,0.9758,130.1000,-64.8900,-89.7100,-21.9300,1.7200,2.1900,0.0000,0.0000,-0.0000,1500.0000,1500.0000,1500.0000,1576.0000
302436.9110,3.0000,1551.0000,1464.0000,1520.0000,-3.0000,3.0000,5.0000,88.0000,135.0000,1778.0000,0.1956,-0.0631,-0.0729,0.9759,129.6600,-64.8400,-89.6700,-21.9500,1.7400,2.2100,0.0000,0.0000,-0.0000,1500.0000,1500.0000,1500.0000,1576.0000
302453.6250,3.0000,1550.0000,1463.0000,1519.0000,-3.0000,5.0000,2.0000,87.0000,16.0000,1866.0000,0.1953,-0.0634,-0.0736,0.9759,129.6600,-64.8400,-89.6700,-21.9500,1.7400,2.2100,0.0000,0.0000,-0.0000,1500.0000,1500.0000,1500.0000,1575.0000
302470.4130,3.0000,1550.0000,1462.0000,1520.0000,-7.0000,6.0000,-1.0000,157.0000,97.0000,1751.0000,0.1952,-0.0643,-0.0745,0.9758,129.2300,-64.8000,-89.6400,-21.9600,1.7500,2.2300,0.0000,0.0000,-0.0000,1497.0000,1500.0000,1500.0000,1576.0000
302487.3890,3.0000,1551.0000,1461.0000,1517.0000,-7.0000,4.0000,-4.0000,103.0000,96.0000,1645.0000,0.1956,-0.0656,-0.0754,0.9756,128.7700,-64.7500,-89.6000,-22.0100,1.7500,2.2500,0.0000,0.0000,-0.0000,1500.0000,1500.0000,1500.0000,1576.0000
302503.9110,3.0000,1551.0000,1461.0000,1517.0000,-9.0000,4.0000,-8.0000,102.0000,-20.0000,1684.0000,0.1964,-0.0666,-0.0762,0.9753,128.3000,-64.7000,-89.5700,-22.0700,1.7600,2.2900,0.0000,0.0000,-0.0000,1500.0000,1500.0000,1500.0000,1576.0000
302520.5900,3.0000,1551.0000,1460.0000,1518.0000,-8.0000,5.0000,-10.0000,101.0000,-19.0000,1680.0000,0.1977,-0.0675,-0.0770,0.9749,127.8400,-64.6600,-89.5300,-22.1100,1.7600,2.3200,0.0000,0.0000,-0.0000,1500.0000,1500.0000,1500.0000,1576.0000
302537.1180,3.0000,1551.0000,1461.0000,1519.0000,-6.0000,5.0000,-11.0000,170.0000,-125.0000,1779.0000,0.1992,-0.0683,-0.0777,0.9745,127.3900,-64.6100,-89.4900,-22.1300,1.7600,2.3500,0.0000,0.0000,-0.0000,1500.0000,1500.0000,1500.0000,1576.0000
302553.7130,3.0000,1551.0000,1460.0000,1520.0000,-6.0000,7.0000,-12.0000,217.0000,-203.0000,1846.0000,0.2009,-0.0689,-0.0782,0.9741,127.3900,-64.6100,-89.4900,-22.1300,1.7600,2.3500,0.0000,0.0000,-0.0000,1500.0000,1500.0000,1500.0000,1576.0000
302570.2700,3.0000,1551.0000,1460.0000,1522.0000,-4.0000,8.0000,-12.0000,148.0000,-199.0000,1757.0000,0.2026,-0.0699,-0.0783,0.9736,126.9600,-64.5700,-89.4600,-22.1500,1.7400,2.3600,0.0000,0.0000,-0.0000,1500.0000,1500.0000,1500.0000,1576.0000
302586.9810,3.0000,1551.0000,1461.0000,1523.0000,-1.0000,7.0000,-12.0000,249.0000,-185.0000,1676.0000,0.2043,-0.0710,-0.0781,0.9732,126.5000,-64.5300,-89.4200,-22.2000,1.7200,2.3800,0.0000,0.0000,-0.0000,1500.0000,1500.0000,1500.0000,1576.0000
302603.4400,3.0000,1550.0000,1462.0000,1522.0000,-2.0000,6.0000,-11.0000,110.0000,-198.0000,1629.0000,0.2060,-0.0717,-0.0777,0.9728,126.0300,-64.4800,-89.3800,-22.2500,1.7100,2.4100,0.0000,0.0000,-0.0000,1498.0000,1500.0000,1500.0000,1575.0000
302619.9550,3.0000,1551.0000,1461.0000,1521.0000,-3.0000,5.0000,-10.0000,14.0000,-253.0000,1716.0000,0.2075,-0.0724,-0.0773,0.9725,125.5700,-64.4400,-89.3400,-22.2700,1.6900,2.4400,0.0000,0.0000,-0.0000,1500.0000,1500.0000,1500.0000,1576.0000
302636.6340,3.0000,1551.0000,1462.0000,1520.0000,-2.0000,5.0000,-8.0000,-4.0000,-242.0000,1830.0000,0.2089,-0.0729,-0.0771,0.9722,125.5700,-64.4400,-89.3400,-22.2700,1.6900,2.4400,0.0000,0.0000,-0.0000,1500.0000,1500.0000,1500.0000,1576.0000
302653.2240,3.0000,1551.0000,1461.0000,1521.0000,-3.0000,5.0000,-6.0000,74.0000,-225.0000,1871.0000,0.2098,-0.0734,-0.0769,0.9719,125.1200,-64.4000,-89.3000,-22.2800,1.6800,2.4500,0.0000,0.0000,-0.0000,1500.0000,1500.0000,1500.0000,1576.0000
302670.0370,3.0000,1550.0000,1462.0000,1522.0000,-1.0000,5.0000,-3.0000,152.0000,-357.0000,1980.0000,0.2105,-0.0740,-0.0775,0.9717,124.6800,-64.3600,-89.2600,-22.2800,1.6700,2.4600,0.0000,0.0000,-0.0000,1500.0000,1500.0000,1500.0000,1575.0000
302686.9070,3.0000,1551.0000,1464.0000,1522.0000,0.0000,2.0000,0.0000,104.0000,-322.0000,1906.0000,0.2107,-0.0747,-0.0779,0.9716,124.2200,-64.3200,-89.2200,-22.3200,1.6500,2.4600,0.0000,0.0000,-0.0000,1500.0000,1500.0000,1500.0000,1576.0000
302703.6970,3.0000,1551.0000,1465.0000,1521.0000,1.0000,2.0000,2.0000,172.0000,-262.0000,1838.0000,0.2106,-0.0749,-0.0773,0.9716,123.7400,-64.2800,-89.1800,-22.3700,1.6300,2.4600,0.0000,0.0000,-0.0000,1500.0000,1500.0000,1500.0000,1576.0000
302720.3790,3.0000,1550.0000,1466.0000,1522.0000,2.0000,1.0000,5.0000,74.0000,-193.0000,1784.0000,0.2101,-0.0749,-0.0766,0.9718,123.2800,-64.2400,-89.1400,-22.4000,1.6100,2.4700,0.0000,0.0000,-0.0000,1500.0000,1500.0000,1500.0000,1575.0000
302736.9660,3.0000,1550.0000,1466.0000,1524.0000,4.0000,2.0000,7.0000,58.0000,-262.0000,1904.0000,0.2092,-0.0750,-0.0759,0.9720,123.2800,-64.2400,-89.1400,-22.4000,1.6100,2.4700,0.0000,0.0000,-0.0000,1498.0000,1500.0000,1500.0000,1575.0000
302753.4540,3.0000,1550.0000,1466.0000,1522.0000,2.0000,1.0000,8.0000,76.0000,-290.0000,2001.0000,0.2082,-0.0750,-0.0753,0.9723,122.8400,-64.2000,-89.1000,-22.4200,1.6000,2.4900,0.0000,0.0000,-0.0000,1500.0000,1498.0000,1500.0000,1576.0000
302770.0760,3.0000,1551.0000,1464.0000,1522.0000,1.0000,2.0000,9.0000,64.0000,-291.0000,2018.0000,0.2071,-0.0751,-0.0751,0.9725,122.4000,-64.1600,-89.0600,-22.4200,1.5800,2.4900,0.0000,0.0000,-0.0000,1500.0000,1500.0000,1500.0000,1576.0000
302786.9810,3.0000,1551.0000,1464.0000,1522.0000,1.0000,2.0000,9.0000,43.0000,-261.0000,2023.0000,0.2059,-0.0756,-0.0752,0.9728,121.9300,-64.1200,-89.0200,-22.4600,1.5700,2.4800,0.0000,0.0000,-0.0000,1500.0000,1500.0000,1500.0000,1576.0000
302803.6620,3.0000,1551.0000,1461.0000,1521.0000,-2.0000,4.0000,10.0000,87.0000,-138.0000,1913.0000,0.2045,-0.0760,-0.0754,0.9730,121.4500,-64.0900,-88.9800,-22.5000,1.5600,2.4800,0.0000,0.0000,-0.0000,1500.0000,1500.0000,1500.0000,1576.0000
302820.3440,3.0000,1551.0000,1463.0000,1521.0000,-1.0000,2.0000,10.0000,-3.0000,-206.0000,1930.0000,0.2032,-0.0763,-0.0757,0.9732,120.9900,-64.0500,-88.9400,-22.5200,1.5600,2.4800,0.0000,0.0000,-0.0000,1500.0000,1500.0000,1500.0000,1576.0000
302836.9600,3.0000,1551.0000,1463.0000,1523.0000,0.0000,3.0000,10.0000,87.0000,-169.0000,1787.0000,0.2019,-0.0767,-0.0760,0.9734,120.9900,-64.0500,-88.9400,-22.5200,1.5600,2.4800,0.0000,0.0000,-0.0000,1500.0000,1500.0000,1500.0000,1576.0000
302853.5410,3.0000,1549.0000,1464.0000,1522.0000,0.0000,3.0000,8.0000,42.0000,-134.0000,1692.0000,0.2008,-0.0768,-0.0761,0.9737,120.5400,-64.0100,-88.9000,-22.5300,1.5500,2.4900,0.0000,0.0000,-0.0000,1500.0000,1500.0000,1500.0000,1574.0000
302870.3890,3.0000,1549.0000,1462.0000,1522.0000,-2.0000,4.0000,7.0000,-56.0000,-77.0000,1723.0000,0.1998,-0.0774,-0.0764,0.9738,120.1000,-63.9800,-88.8600,-22.5200,1.5400,2.5100,0.0000,0.0000,-0.0000,1498.0000,1500.0000,1500.0000,1574.0000
302887.4490,3.0000,1551.0000,1461.0000,1521.0000,-3.0000,3.0000,5.0000,19.0000,-132.0000,1780.0000,0.1989,-0.0783,-0.0770,0.9738,119.6300,-63.9400,-88.8200,-22.5600,1.5400,2.5400,0.0000,0.0000,-0.0000,1500.0000,1498.0000,1500.0000,1576.0000
302904.2250,3.0000,1551.0000,1460.0000,1520.0000,-5.0000,3.0000,5.0000,138.0000,-188.0000,1790.0000,0.1982,-0.0789,-0.0777,0.9739,119.1500,-63.9100,-88.7700,-22.6000,1.5300,2.5600,0.0000,0.0000,-0.0000,1500.0000,1500.0000,1500.0000,1576.0000
302920.8090,3.0000,1551.0000,1461.0000,1521.0000,-2.0000,4.0000,6.0000,50.0000,-230.0000,1821.0000,0.1975,-0.0795,-0.0784,0.9739,119.1500,-63.9100,-88.7700,-22.6000,1.5300,2.5600,0.0000,0.0000,-0.0000,1500.0000,1500.0000,1500.0000,1576.0000
302937.3630,3.0000,1551.0000,1461.0000,1521.0000,-3.0000,3.0000,4.0000,-23.0000,-144.0000,1737.0000,0.1968,-0.0801,-0.0791,0.9740,118.6900,-63.8700,-88.7300,-22.6200,1.5200,2.5700,0.0000,0.0000,-0.0000,1500.0000,1500.0000,1500.0000,1576.0000
302954.1300,3.0000,1551.0000,1459.0000,1521.0000,-5.0000,5.0000,3.0000,-54.0000,-21.0000,1596.0000,0.1963,-0.0809,-0.0798,0.9739,118.2400,-63.8400,-88.6900,-22.6300,1.5100,2.5900,0.0000,0.0000,-0.0000,1500.0000,1500.0000,1500.0000,1576.0000
302970.7620,3.0000,1551.0000,1459.0000,1521.0000,-4.0000,5.0000,0.0000,57.0000,-39.0000,1627.0000,0.1961,-0.0818,-0.0803,0.9739,117.8000,-63.8000,-88.6500,-22.6200,1.5100,2.6200,0.0000,0.0000,-0.0000,1500.0000,1500.0000,1500.0000,1576.0000
302987.5110,3.0000,1551.0000,1460.0000,1520.0000,-5.0000,4.0000,-2.0000,37.0000,-66.0000,1852.0000,0.1962,-0.0828,-0.0808,0.9737,117.3300,-63.7700,-88.6000,-22.6700,1.5100,2.6600,0.0000,0.0000,-0.0000,1500.0000,1500.0000,1500.0000,1576.0000
303004.0840,3.0000,1551.0000,1458.0000,1522.0000,-5.0000,7.0000,-3.0000,-40.0000,-84.0000,1981.0000,0.1965,-0.0839,-0.0814,0.9735,116.8500,-63.7300,-88.5600,-22.7100,1.5200,2.6700,0.0000,0.0000,-0.0000,1500.0000,1500.0000,1500.0000,1576.0000
303020.6500,2.0000,1589.0000,1393.0000,1583.0000,-6.0000,7.0000,-6.0000,91.0000,-45.0000,1817.0000,0.1972,-0.0851,-0.0819,0.9732,116.8500,-63.7300,-88.5600,-22.7100,1.5200,2.6700,0.0000,0.0000,-0.0000,1559.0000,1072.0000,1500.0000,1739.0000
303037.4710,2.0000,1724.0000,1015.0000,1871.0000,-1.0000,3.0000,-7.0000,106.0000,-165.0000,1787.0000,0.1981,-0.0859,-0.0821,0.9730,116.3900,-63.7000,-88.5200,-22.7500,1.5200,2.6800,0.0000,0.0000,-0.0000,1559.0000,1072.0000,1500.0000,1739.0000
303054.5590,2.0000,1719.0000,1015.0000,1871.0000,-2.0000,-8.0000,-9.0000,20.0000,-195.0000,1213.0000,0.1992,-0.0856,-0.0821,0.9728,115.9300,-63.6700,-88.4700,-22.7700,1.5100,2.7000,0.0000,0.0000,-0.0000,1560.0000,1072.0000,1500.0000,1735.0000
303071.2670,2.0000,1719.0000,1014.0000,1870.0000,-5.0000,-40.0000,-8.0000,-240.0000,-16.0000,421.0000,0.2000,-0.0825,-0.0833,0.9727,115.5000,-63.6400,-88.4300,-22.7500,1.5000,2.7600,0.0000,0.0000,-0.0000,1560.0000,1072.0000,1500.0000,1735.0000
303088.2940,2.0000,1719.0000,1014.0000,1870.0000,-4.0000,-82.0000,-14.0000,-154.0000,-17.0000,350.0000,0.2009,-0.0740,-0.0861,0.9730,115.0200,-63.6000,-88.3800,-22.7500,1.5000,2.9100,0.0000,0.0000,-0.0000,1560.0000,1072.0000,1500.0000,1735.0000
303104.9790,2.0000,1719.0000,1014.0000,1870.0000,7.0000,-117.0000,-18.0000,77.0000,-160.0000,1443.0000,0.2019,-0.0596,-0.0888,0.9735,114.5400,-63.5700,-88.3300,-22.7600,1.4900,3.0400,0.0000,0.0000,-0.0000,1560.0000,1072.0000,1500.0000,1735.0000
303121.7040,2.0000,1719.0000,1014.0000,1870.0000,19.0000,-158.0000,-26.0000,-114.0000,-86.0000,2980.0000,0.2034,-0.0399,-0.0913,0.9740,114.5400,-63.5700,-88.3300,-22.7600,1.4900,3.0400,0.0000,0.0000,-0.0000,1560.0000,1072.0000,1500.0000,1735.0000
303138.3910,2.0000,1719.0000,1014.0000,1870.0000,19.0000,-177.0000,-26.0000,-24.0000,-217.0000,4832.0000,0.2050,-0.0147,-0.0937,0.9741,114.0800,-63.5400,-88.2700,-22.7800,1.5000,3.0200,0.0000,0.0000,-0.0000,1560.0000,1072.0000,1500.0000,1735.0000
303155.2200,2.0000,1656.0000,1009.0000,1873.0000,21.0000,-194.0000,-27.0000,480.0000,-352.0000,6894.0000,0.2065,0.0129,-0.0963,0.9736,113.6300,-63.5000,-88.2200,-22.7800,1.5400,2.8100,0.0000,0.0000,-0.0000,1562.0000,1067.0000,1500.0000,1675.0000
303172.3240,2.0000,1656.0000,1007.0000,1873.0000,21.0000,-192.0000,-26.0000,686.0000,-522.0000,8503.0000,0.2079,0.0422,-0.0989,0.9722,113.2100,-63.4700,-88.1800,-22.7600,1.5900,2.3900,0.0000,0.0000,-0.0000,1562.0000,1067.0000,1500.0000,1675.0000
303189.4760,2.0000,1656.0000,1007.0000,1873.0000,23.0000,-181.0000,-23.0000,956.0000,-609.0000,9752.0000,0.2088,0.0701,-0.1014,0.9702,112.7000,-63.4300,-88.1400,-22.8100,1.6500,1.7900,0.0000,0.0000,-0.0000,1562.0000,1067.0000,1500.0000,1675.0000
303206.2630,2.0000,1656.0000,1007.0000,1873.0000,20.0000,-160.0000,-24.0000,890.0000,-561.0000,10305.0000,0.2095,0.0956,-0.1032,0.9676,112.2100,-63.4000,-88.1100,-22.7800,1.7300,1.0800,0.0000,0.0000,-0.0000,1562.0000,1067.0000,1500.0000,1675.0000
303223.2730,2.0000,1656.0000,1007.0000,1873.0000,15.0000,-140.0000,-23.0000,931.0000,-691.0000,10904.0000,0.2105,0.1183,-0.1052,0.9647,112.2100,-63.4000,-88.1100,-22.7800,1.7300,1.0800,0.0000,0.0000,-0.0000,1562.0000,1067.0000,1500.0000,1675.0000
303240.3330,2.0000,1089.0000,1000.0000,1449.0000,17.0000,-108.0000,-22.0000,1050.0000,-577.0000,10962.0000,0.2120,0.1364,-0.1064,0.9618,111.7500,-63.3600,-88.0900,-22.6700,1.8200,0.2800,0.0000,0.0000,-0.0000,1975.0000,1082.0000,1500.0000,1132.0000
303257.3150,2.0000,1083.0000,1000.0000,1444.0000,23.0000,-78.0000,-23.0000,772.0000,-523.0000,10115.0000,0.2137,0.1505,-0.1067,0.9593,111.3300,-63.3200,-88.0900,-22.5000,1.9100,-0.5000,0.0000,0.0000,-0.0000,1975.0000,1082.0000,1500.0000,1132.0000
303274.0940,2.0000,1083.0000,1000.0000,1444.0000,44.0000,-47.0000,-20.0000,174.0000,-734.0000,9182.0000,0.2155,0.1610,-0.1039,0.9575,110.9400,-63.2900,-88.1000,-22.2900,1.9800,-1.2200,0.0000,0.0000,-0.0000,1975.0000,1082.0000,1500.0000,1132.0000
303291.0300,2.0000,1083.0000,1000.0000,1444.0000,60.0000,-10.0000,-21.0000,-50.0000,-670.0000,8229.0000,0.2168,0.1670,-0.0970,0.9569,110.4300,-63.2400,-88.1300,-22.1700,2.0700,-1.8500,0.0000,0.0000,-0.0000,1975.0000,1082.0000,1500.0000,1132.0000
303307.9950,2.0000,1083.0000,1000.0000,1444.0000,83.0000,25.0000,-24.0000,-131.0000,-421.0000,7196.0000,0.2185,0.1684,-0.0857,0.9574,109.9600,-63.2000,-88.1700,-22.0300,2.1500,-2.3600,0.0000,0.0000,-0.0000,1975.0000,1082.0000,1500.0000,1132.0000
303324.9940,2.0000,1083.0000,1000.0000,1444.0000,101.0000,49.0000,-22.0000,-286.0000,-449.0000,6059.0000,0.2201,0.1665,-0.0708,0.9586,109.9600,-63.2000,-88.1700,-22.0300,2.1500,-2.3600,0.0000,0.0000,-0.0000,1975.0000,1082.0000,1500.0000,1132.0000
303341.7740,2.0000,1083.0000,1000.0000,1444.0000,111.0000,67.0000,-19.0000,-390.0000,-436.0000,4806.0000,0.2209,0.1618,-0.0535,0.9603,109.5100,-63.1600,-88.2300,-21.8800,2.1900,-2.7700,0.0000,0.0000,-0.0000,1975.0000,1082.0000,1500.0000,1132.0000
303358.4640,2.0000,1312.0000,1000.0000,1588.0000,122.0000,71.0000,-20.0000,-511.0000,-415.0000,3398.0000,0.2212,0.1560,-0.0344,0.9620,109.0800,-63.1200,-88.2900,-21.7600,2.1900,-3.0400,0.0000,0.0000,-0.0000,1844.0000,1068.0000,1500.0000,1350.0000
303375.6190,2.0000,1313.0000,1000.0000,1589.0000,130.0000,63.0000,-21.0000,-638.0000,-374.0000,2581.0000,0.2213,0.1505,-0.0136,0.9634,108.6700,-63.0800,-88.3500,-21.6500,2.1600,-3.1500,0.0000,0.0000,-0.0000,1844.0000,1068.0000,1500.0000,1350.0000
303392.7810,2.0000,1313.0000,1000.0000,1589.0000,132.0000,50.0000,-23.0000,-586.0000,-218.0000,1330.0000,0.2215,0.1465,0.0077,0.9641,108.2000,-63.0300,-88.4200,-21.5700,2.1800,-3.1600,0.0000,0.0000,-0.0000,1844.0000,1068.0000,1500.0000,1350.0000
303409.6680,2.0000,1313.0000,1000.0000,1589.0000,134.0000,21.0000,-23.0000,-641.0000,-214.0000,614.0000,0.2218,0.1457,0.0282,0.9637,107.7600,-62.9900,-88.4900,-21.5200,2.1900,-3.0600,0.0000,0.0000,-0.0000,1844.0000,1068.0000,1500.0000,1350.0000
303426.3820,2.0000,1313.0000,1000.0000,1589.0000,143.0000,-4.0000,-25.0000,-679.0000,-232.0000,610.0000,0.2221,0.1488,0.0483,0.9624,107.7600,-62.9900,-88.4900,-21.5200,2.1900,-3.0600,0.0000,0.0000,-0.0000,1844.0000,1068.0000,1500.0000,1350.0000
303443.1800,2.0000,1313.0000,1000.0000,1589.0000,150.0000,-29.0000,-26.0000,-630.0000,-244.0000,850.0000,0.2222,0.1557,0.0689,0.9600,107.3200,-62.9400,-88.5600,-21.4600,2.1900,-2.9100,0.0000,0.0000,-0.0000,1844.0000,1068.0000,1500.0000,1350.0000
303460.1280,2.0000,1313.0000,1000.0000,1589.0000,156.0000,-50.0000,-28.0000,-488.0000,-244.0000,1271.0000,0.2224,0.1661,0.0900,0.9565,106.8900,-62.9000,-88.6200,-21.3900,2.1900,-2.7700,0.0000,0.0000,-0.0000,1844.0000,1068.0000,1500.0000,1350.0000
303477.1660,2.0000,1787.0000,1000.0000,1440.0000,161.0000,-70.0000,-30.0000,-430.0000,-310.0000,1898.0000,0.2228,0.1796,0.1115,0.9517,106.4800,-62.8600,-88.6800,-21.3000,2.1700,-2.6800,0.0000,0.0000,-0.0000,1999.0000,1062.0000,1500.0000,1800.0000
303493.9980,2.0000,1788.0000,1000.0000,1440.0000,163.0000,-85.0000,-30.0000,-372.0000,-312.0000,2649.0000,0.2236,0.1954,0.1326,0.9457,106.0300,-62.8200,-88.7400,-21.1600,2.1200,-2.6500,0.0000,0.0000,-0.0000,1999.0000,1062.0000,1500.0000,1800.0000
303510.9980,2.0000,1788.0000,1000.0000,1440.0000,162.0000,-96.0000,-31.0000,-70.0000,-208.0000,3431.0000,0.2245,0.2129,0.1530,0.9386,105.6000,-62.7800,-88.8000,-20.9900,2.0400,-2.6900,0.0000,0.0000,-0.0000,1999.0000,1062.0000,1500.0000,1800.0000
303527.7500,2.0000,1788.0000,1000.0000,1440.0000,166.0000,-99.0000,-29.0000,355.0000,-235.0000,4175.0000,0.2252,0.2309,0.1733,0.9306,105.6000,-62.7800,-88.8000,-20.9900,2.0400,-2.6900,0.0000,0.0000,-0.0000,1999.0000,1062.0000,1500.0000,1800.0000
303544.4010,2.0000,1788.0000,1000.0000,1440.0000,172.0000,-99.0000,-28.0000,595.0000,-376.0000,4960.0000,0.2251,0.2486,0.1940,0.9219,105.1800,-62.7400,-88.8600,-20.8000,1.9200,-2.8200,0.0000,0.0000,-0.0000,1999.0000,1062.0000,1500.0000,1800.0000
303561.0650,2.0000,1788.0000,1000.0000,1440.0000,177.0000,-96.0000,-28.0000,815.0000,-471.0000,5408.0000,0.2242,0.2661,0.2154,0.9124,104.7700,-62.7100,-88.9200,-20.5700,1.7500,-2.9900,0.0000,0.0000,-0.0000,1999.0000,1062.0000,1500.0000,1800.0000
303577.8600,2.0000,1629.0000,1000.0000,1455.0000,177.0000,-80.0000,-28.0000,1093.0000,-282.0000,5641.0000,0.2226,0.2823,0.2375,0.9024,104.3800,-62.6800,-88.9800,-20.3000,1.5300,-3.1800,0.0000,0.0000,-0.0000,1981.0000,1065.0000,1500.0000,1649.0000
303594.9440,2.0000,1629.0000,1000.0000,1455.0000,179.0000,-81.0000,-24.0000,1169.0000,-270.0000,5632.0000,0.2210,0.2980,0.2598,0.8916,103.9600,-62.6500,-89.0500,-20.0600,1.2600,-3.3800,0.0000,0.0000,-0.0000,1981.0000,1065.0000,1500.0000,1649.0000
303611.7440,2.0000,1629.0000,1000.0000,1455.0000,175.0000,-75.0000,-25.0000,1082.0000,-404.0000,5460.0000,0.2189,0.3125,0.2814,0.8805,103.9600,-62.6500,-89.0500,-20.0600,1.2600,-3.3800,0.0000,0.0000,-0.0000,1981.0000,1065.0000,1500.0000,1649.0000
303628.5000,2.0000,1629.0000,1000.0000,1455.0000,172.0000,-71.0000,-25.0000,833.0000,-418.0000,5205.0000,0.2165,0.3259,0.3027,0.8691,103.5400,-62.6300,-89.1200,-19.7900,0.9900,-3.5600,0.0000,0.0000,-0.0000,1981.0000,1065.0000,1500.0000,1649.0000
303645.1560,2.0000,1629.0000,1000.0000,1455.0000,163.0000,-60.0000,-26.0000,862.0000,-328.0000,4960.0000,0.2137,0.3378,0.3230,0.8579,103.1500,-62.6100,-89.1900,-19.5200,0.7300,-3.6800,0.0000,0.0000,-0.0000,1981.0000,1065.0000,1500.0000,1649.0000
303662.1280,2.0000,1629.0000,1000.0000,1455.0000,163.0000,-57.0000,-27.0000,705.0000,-397.0000,4814.0000,0.2105,0.3485,0.3435,0.8463,102.7700,-62.6000,-89.2600,-19.2500,0.4900,-3.7600,0.0000,0.0000,-0.0000,1981.0000,1065.0000,1500.0000,1649.0000
303678.8540,2.0000,1629.0000,1000.0000,1455.0000,159.0000,-54.0000,-31.0000,619.0000,-179.0000,4427.0000,0.2074,0.3582,0.3635,0.8346,102.4000,-62.6000,-89.3300,-18.9900,0.2500,-3.8000,0.0000,0.0000,-0.0000,1981.0000,1065.0000,1500.0000,1649.0000
303695.9000,2.0000,1910.0000,1000.0000,1773.0000,159.0000,-53.0000,-36.0000,622.0000,-150.0000,4015.0000,0.2055,0.3677,0.3834,0.8219,102.0000,-62.6000,-89.4100,-18.7500,0.0300,-3.8200,0.0000,0.0000,-0.0000,1673.0000,1056.0000,1500.0000,1917.0000
303712.4890,2.0000,1911.0000,1000.0000,1773.0000,161.0000,-53.0000,-42.0000,787.0000,-57.0000,3645.0000,0.2039,0.3760,0.4032,0.8090,102.0000,-62.6000,-89.4100,-18.7500,0.0300,-3.8200,0.0000,0.0000,-0.0000,1673.0000,1056.0000,1500.0000,1917.0000
303729.5870,2.0000,1911.0000,1000.0000,1773.0000,158.0000,-55.0000,-47.0000,941.0000,-15.0000,3378.0000,0.2025,0.3838,0.4237,0.7951,101.6100,-62.6000,-89.4800,-18.5400,-0.1700,-3.8000,0.0000,0.0000,-0.0000,1673.0000,1056.0000,1500.0000,1917.0000
303746.2590,2.0000,1911.0000,1000.0000,1773.0000,135.0000,-76.0000,-53.0000,1194.0000,215.0000,3236.0000,0.2032,0.3918,0.4419,0.7810,101.2400,-62.6100,-89.5500,-18.3700,-0.3600,-3.7600,0.0000,0.0000,-0.0000,1673.0000,1056.0000,1500.0000,1917.0000
303762.8420,2.0000,1911.0000,1000.0000,1773.0000,112.0000,-103.0000,-55.0000,1079.0000,-239.0000,2766.0000,0.2070,0.4016,0.4567,0.7664,100.8800,-62.6200,-89.6300,-18.2300,-0.5400,-3.7200,0.0000,0.0000,-0.0000,1673.0000,1056.0000,1500.0000,1917.0000
303779.9140,2.0000,1973.0000,1000.0000,1594.0000,84.0000,-121.0000,-57.0000,1261.0000,-369.0000,3205.0000,0.2140,0.4127,0.4681,0.7515,100.5300,-62.6300,-89.6900,-18.1200,-0.7300,-3.6100,0.0000,0.0000,-0.0000,1851.0000,1057.0000,1500.0000,1976.0000
303796.9210,2.0000,1974.0000,1000.0000,1593.0000,67.0000,-140.0000,-58.0000,1639.0000,-301.0000,4068.0000,0.2245,0.4254,0.4759,0.7363,100.1300,-62.6500,-89.7600,-17.9700,-1.0700,-3.4900,0.0000,0.0000,-0.0000,1851.0000,1057.0000,1500.0000,1976.0000
303813.3690,2.0000,1974.0000,1000.0000,1593.0000,63.0000,-148.0000,-60.0000,1486.0000,-90.0000,4432.0000,0.2362,0.4382,0.4818,0.7211,100.1300,-62.6500,-89.7600,-17.9700,-1.0700,-3.4900,0.0000,0.0000,-0.0000,1851.0000,1057.0000,1500.0000,1976.0000
303830.0840,2.0000,1974.0000,1000.0000,1593.0000,66.0000,-151.0000,-65.0000,1252.0000,-248.0000,5000.0000,0.2485,0.4513,0.4876,0.7048,99.7600,-62.6800,-89.8200,-17.7600,-1.4000,-3.3900,0.0000,0.0000,-0.0000,1851.0000,1057.0000,1500.0000,1976.0000
303846.9270,2.0000,1974.0000,1000.0000,1593.0000,68.0000,-153.0000,-67.0000,1272.0000,-372.0000,5651.0000,0.2607,0.4638,0.4940,0.6877,99.4200,-62.7100,-89.8700,-17.4800,-1.7000,-3.2600,0.0000,0.0000,-0.0000,1851.0000,1057.0000,1500.0000,1976.0000
303863.8960,2.0000,1974.0000,1000.0000,1593.0000,69.0000,-155.0000,-69.0000,1398.0000,-418.0000,5964.0000,0.2731,0.4764,0.5003,0.6695,99.0900,-62.7500,-89.9200,-17.1300,-2.0000,-3.1000,0.0000,0.0000,-0.0000,1851.0000,1057.0000,1500.0000,1976.0000
303880.7660,2.0000,1974.0000,1000.0000,1437.0000,64.0000,-149.0000,-69.0000,2039.0000,-516.0000,6287.0000,0.2848,0.4874,0.5063,0.6519,98.7700,-62.7900,-89.9700,-16.7700,-2.3200,-2.9200,0.0000,0.0000,-0.0000,1999.0000,1066.0000,1500.0000,1977.0000
303897.6920,2.0000,1975.0000,1000.0000,1436.0000,61.0000,-146.0000,-68.0000,1972.0000,-794.0000,6736.0000,0.2976,0.4988,0.5111,0.6336,98.4000,-62.8500,-90.0100,-16.4200,-2.7800,-2.7100,0.0000,0.0000,-0.0000,1999.0000,1066.0000,1500.0000,1977.0000
303914.4700,2.0000,1975.0000,1000.0000,1436.0000,68.0000,-143.0000,-70.0000,1591.0000,-696.0000,7010.0000,0.3096,0.5091,0.5160,0.6155,98.4000,-62.8500,-90.0100,-16.4200,-2.7800,-2.7100,0.0000,0.0000,-0.0000,1999.0000,1066.0000,1500.0000,1977.0000
303931.1840,2.0000,1975.0000,1000.0000,1436.0000,89.0000,-128.0000,-72.0000,1406.0000,-285.0000,6882.0000,0.3194,0.5185,0.5227,0.5966,98.0600,-62.9200,-90.0500,-16.0200,-3.1600,-2.4700,0.0000,0.0000,-0.0000,1999.0000,1066.0000,1500.0000,1977.0000
303947.7680,2.0000,1975.0000,1000.0000,1436.0000,111.0000,-108.0000,-75.0000,1680.0000,-465.0000,7139.0000,0.3264,0.5270,0.5318,0.5770,97.7500,-62.9800,-90.0800,-15.6200,-3.4600,-2.2200,0.0000,0.0000,-0.0000,1999.0000,1066.0000,1500.0000,1977.0000
303964.5890,2.0000,1975.0000,1000.0000,1436.0000,125.0000,-94.0000,-75.0000,1582.0000,-330.0000,6649.0000,0.3303,0.5342,0.5435,0.5569,97.4500,-63.0500,-90.1100,-15.2200,-3.7300,-1.9400,0.0000,0.0000,-0.0000,1999.0000,1066.0000,1500.0000,1977.0000
303981.4000,2.0000,1975.0000,1000.0000,1436.0000,135.0000,-71.0000,-72.0000,1613.0000,-273.0000,6064.0000,0.3315,0.5402,0.5569,0.5368,97.1500,-63.1300,-90.1300,-14.8800,-3.9800,-1.6400,0.0000,0.0000,-0.0000,1999.0000,1066.0000,1500.0000,1977.0000
303998.4670,2.0000,1968.0000,1000.0000,1437.0000,144.0000,-71.0000,-74.0000,1671.0000,-596.0000,5294.0000,0.3315,0.5464,0.5705,0.5158,96.8200,-63.2200,-90.1500,-14.6000,-4.3300,-1.3300,0.0000,0.0000,-0.0000,1999.0000,1065.0000,1500.0000,1971.0000
304015.4790,2.0000,1968.0000,1000.0000,1437.0000,148.0000,-63.0000,-72.0000,1447.0000,-823.0000,4650.0000,0.3304,0.5519,0.5848,0.4942,96.8200,-63.2200,-90.1500,-14.6000,-4.3300,-1.3300,0.0000,0.0000,-0.0000,1999.0000,1065.0000,1500.0000,1971.0000
304032.8820,2.0000,1968.0000,1000.0000,1437.0000,152.0000,-56.0000,-69.0000,1534.0000,-437.0000,4353.0000,0.3278,0.5567,0.5994,0.4726,96.5000,-63.3200,-90.1600,-14.4300,-4.6200,-0.9800,0.0000,0.0000,-0.0000,1999.0000,1065.0000,1500.0000,1971.0000
304049.5210,2.0000,1968.0000,1000.0000,1437.0000,160.0000,-69.0000,-69.0000,1574.0000,-472.0000,4012.0000,0.3247,0.5614,0.6132,0.4510,96.2100,-63.4200,-90.1600,-14.3100,-4.8500,-0.6100,0.0000,0.0000,-0.0000,1999.0000,1065.0000,1500.0000,1971.0000
304066.0340,2.0000,1968.0000,1000.0000,1437.0000,165.0000,-70.0000,-68.0000,1268.0000,-337.0000,3592.0000,0.3210,0.5660,0.6269,0.4285,95.9300,-63.5100,-90.1600,-14.2300,-5.0400,-0.2600,0.0000,0.0000,-0.0000,1999.0000,1065.0000,1500.0000,1971.0000
304082.7250,2.0000,1981.0000,1000.0000,1435.0000,178.0000,-82.0000,-67.0000,1394.0000,-486.0000,3435.0000,0.3172,0.5713,0.6403,0.4037,95.6500,-63.6100,-90.1400,-14.1600,-5.2300,0.0800,0.0000,0.0000,-0.0000,1999.0000,1067.0000,1500.0000,1989.0000
304099.5860,2.0000,1987.0000,1000.0000,1435.0000,181.0000,-88.0000,-65.0000,1425.0000,-514.0000,3444.0000,0.3134,0.5778,0.6528,0.3767,95.3300,-63.7400,-90.1300,-13.9800,-5.5900,0.4700,0.0000,0.0000,-0.0000,1999.0000,1067.0000,1500.0000,1989.0000
304116.3490,2.0000,1987.0000,1000.0000,1435.0000,188.0000,-95.0000,-62.0000,1270.0000,-583.0000,3442.0000,0.3096,0.5845,0.6642,0.3484,95.3300,-63.7400,-90.1300,-13.9800,-5.5900,0.4700,0.0000,0.0000,-0.0000,1999.0000,1067.0000,1500.0000,1989.0000
304133.4890,2.0000,1987.0000,1000.0000,1435.0000,193.0000,-100.0000,-58.0000,1584.0000,-508.0000,3742.0000,0.3054,0.5913,0.6750,0.3185,95.0300,-63.8700,-90.1000,-13.8100,-5.8800,0.8900,0.0000,0.0000,-0.0000,1999.0000,1067.0000,1500.0000,1989.0000
304150.1470,2.0000,1987.0000,1000.0000,1435.0000,201.0000,-112.0000,-56.0000,1594.0000,-790.0000,4035.0000,0.3011,0.5983,0.6847,0.2874,94.7500,-64.0000,-90.0600,-13.6300,-6.1400,1.3400,0.0000,0.0000,-0.0000,1999.0000,1067.0000,1500.0000,1989.0000
304166.8950,2.0000,1987.0000,1000.0000,1435.0000,203.0000,-117.0000,-54.0000,1033.0000,-771.0000,3913.0000,0.2967,0.6051,0.6935,0.2546,94.4900,-64.1200,-90.0200,-13.4700,-6.3600,1.8400,0.0000,0.0000,-0.0000,1999.0000,1067.0000,1500.0000,1989.0000
304183.7870,2.0000,1979.0000,1000.0000,1435.0000,201.0000,-113.0000,-49.0000,1025.0000,-664.0000,4080.0000,0.2917,0.6115,0.7013,0.2218,94.2200,-64.2600,-89.9600,-13.3000,-6.5200,2.3600,0.0000,0.0000,-0.0000,1999.0000,1066.0000,1500.0000,1981.0000
304200.5900,2.0000,1979.0000,1000.0000,1436.0000,204.0000,-123.0000,-43.0000,1369.0000,-831.0000,4533.0000,0.2870,0.6187,0.7066,0.1885,93.9300,-64.4200,-89.9000,-13.0300,-6.7600,2.9100,0.0000,0.0000,-0.0000,1999.0000,1066.0000,1500.0000,1981.0000
304217.3060,2.0000,1979.0000,1000.0000,1436.0000,203.0000,-120.0000,-40.0000,1380.0000,-674.0000,4741.0000,0.2821,0.6255,0.7108,0.1548,93.9300,-64.4200,-89.9000,-13.0300,-6.7600,2.9100,0.0000,0.0000,-0.0000,1999.0000,1066.0000,1500.0000,1981.0000
304233.8450,2.0000,1979.0000,1000.0000,1436.0000,204.0000,-121.0000,-38.0000,1175.0000,-707.0000,4809.0000,0.2768,0.6315,0.7140,0.1216,93.6600,-64.5700,-89.8200,-12.7800,-6.9700,3.5100,0.0000,0.0000,-0.0000,1999.0000,1066.0000,1500.0000,1981.0000
304250.5680,2.0000,1979.0000,1000.0000,1436.0000,202.0000,-119.0000,-36.0000,1355.0000,-730.0000,4850.0000,0.2712,0.6368,0.7163,0.0882,93.4000,-64.7300,-89.7300,-12.5500,-7.1000,4.1300,0.0000,0.0000,-0.0000,1999.0000,1066.0000,1500.0000,1981.0000
304267.4930,2.0000,1979.0000,1000.0000,1436.0000,206.0000,-115.0000,-34.0000,1315.0000,-762.0000,4880.0000,0.2649,0.6415,0.7179,0.0542,93.1600,-64.8800,-89.6300,-12.3600,-7.2000,4.7700,0.0000,0.0000,-0.0000,1999.0000,1066.0000,1500.0000,1981.0000
304284.2390,2.0000,1979.0000,1000.0000,1436.0000,210.0000,-121.0000,-33.0000,1399.0000,-887.0000,5309.0000,0.2578,0.6456,0.7186,0.0203,92.9200,-65.0300,-89.5200,-12.2000,-7.2900,5.4200,0.0000,0.0000,-0.0000,1999.0000,1066.0000,1500.0000,1981.0000
304301.1580,2.0000,1979.0000,1000.0000,1436.0000,206.0000,-120.0000,-32.0000,1453.0000,-569.0000,5285.0000,0.2506,0.6499,0.7174,-0.0145,92.6600,-65.2100,-89.4000,-12.0200,-7.4400,6.1100,0.0000,0.0000,-0.0000,1999.0000,1066.0000,1500.0000,1981.0000
304317.9270,2.0000,1994.0000,1000.0000,1434.0000,205.0000,-123.0000,-31.0000,1460.0000,-359.0000,5199.0000,0.2438,0.6531,0.7153,-0.0488,92.6600,-65.2100,-89.4000,-12.0200,-7.4400,6.1100,0.0000,0.0000,-0.0000,1999.0000,1068.0000,1500.0000,1996.0000
304334.4420,2.0000,1995.0000,1000.0000,1434.0000,209.0000,-120.0000,-30.0000,1146.0000,-140.0000,4693.0000,0.2363,0.6555,0.7125,-0.0824,92.4100,-65.3900,-89.2600,-11.8600,-7.5500,6.7900,0.0000,0.0000,-0.0000,1999.0000,1068.0000,1500.0000,1996.0000
304351.3440,2.0000,1995.0000,1000.0000,1434.0000,208.0000,-126.0000,-30.0000,1037.0000,-381.0000,4848.0000,0.2289,0.6570,0.7087,-0.1169,92.1700,-65.5600,-89.1200,-11.7300,-7.6100,7.4100,0.0000,0.0000,-0.0000,1999.0000,1068.0000,1500.0000,1996.0000
304368.2670,2.0000,1995.0000,1000.0000,1434.0000,206.0000,-122.0000,-27.0000,878.0000,-583.0000,4995.0000,0.2212,0.6577,0.7040,-0.1512,91.9600,-65.7200,-88.9600,-11.6400,-7.6200,8.0100,0.0000,0.0000,-0.0000,1999.0000,1068.0000,1500.0000,1996.0000
304384.9600,2.0000,1995.0000,1000.0000,1434.0000,205.0000,-121.0000,-24.0000,820.0000,-739.0000,5249.0000,0.2135,0.6579,0.6983,-0.1844,91.7400,-65.8900,-88.8000,-11.5700,-7.6000,8.6100,0.0000,0.0000,-0.0000,1999.0000,1068.0000,1500.0000,1996.0000
304401.5690,2.0000,1995.0000,1000.0000,1434.0000,208.0000,-117.0000,-22.0000,1155.0000,-748.0000,5646.0000,0.2051,0.6585,0.6909,-0.2169,91.7400,-65.8900,-88.8000,-11.5700,-7.6000,8.6100,0.0000,0.0000,-0.0000,1999.0000,1068.0000,1500.0000,1996.0000
304418.2970,2.0000,1995.0000,1000.0000,1434.0000,214.0000,-115.0000,-21.0000,1134.0000,-445.0000,5363.0000,0.1959,0.6583,0.6825,-0.2500,91.4900,-66.0800,-88.6200,-11.4600,-7.5900,9.2700,0.0000,0.0000,-0.0000,1999.0000,1068.0000,1500.0000,1996.0000
304434.7530,2.0000,1995.0000,1000.0000,1434.0000,212.0000,-116.0000,-21.0000,1238.0000,-475.0000,5771.0000,0.1862,0.6575,0.6734,-0.2821,91.2600,-66.2600,-88.4300,-11.3600,-7.5700,9.8900,0.0000,0.0000,-0.0000,1999.0000,1068.0000,1500.0000,1996.0000
304451.6750,2.0000,1995.0000,1000.0000,1434.0000,212.0000,-118.0000,-20.0000,1143.0000,-632.0000,6049.0000,0.1763,0.6556,0.6633,-0.3149,91.0500,-66.4400,-88.2300,-11.2900,-7.5200,10.5200,0.0000,0.0000,-0.0000,1999.0000,1068.0000,1500.0000,1996.0000
304468.3480,2.0000,1995.0000,1000.0000,1434.0000,210.0000,-119.0000,-19.0000,1083.0000,-677.0000,6174.0000,0.1669,0.6528,0.6525,-0.3466,90.8500,-66.6000,-88.0300,-11.2600,-7.4300,11.1400,0.0000,0.0000,-0.0000,1999.0000,1068.0000,1500.0000,1996.0000
304485.5900,2.0000,1995.0000,1000.0000,1434.0000,209.0000,-117.0000,-18.0000,900.0000,-653.0000,6096.0000,0.1571,0.6492,0.6405,-0.3789,90.6700,-66.7500,-87.8100,-11.2700,-7.3300,11.7300,0.0000,0.0000,-0.0000,1999.0000,1068.0000,1500.0000,1996.0000
304502.6240,2.0000,1995.0000,1000.0000,1434.0000,213.0000,-107.0000,-16.0000,913.0000,-433.0000,5882.0000,0.1463,0.6460,0.6271,-0.4098,90.6700,-66.7500,-87.8100,-11.2700,-7.3300,11.7300,0.0000,0.0000,-0.0000,1999.0000,1068.0000,1500.0000,1996.0000
304519.4160,2.0000,1995.0000,1000.0000,1454.0000,218.0000,-115.0000,-17.0000,1125.0000,-477.0000,6342.0000,0.1351,0.6419,0.6129,-0.4405,90.5000,-66.8900,-87.5900,-11.2700,-7.2200,12.2600,0.0000,0.0000,-0.0000,1982.0000,1064.0000,1500.0000,1996.0000
304536.4680,2.0000,1995.0000,1000.0000,1455.0000,219.0000,-108.0000,-16.0000,875.0000,-556.0000,6136.0000,0.1232,0.6371,0.5976,-0.4710,90.3400,-67.0100,-87.3600,-11.3100,-7.1000,12.8000,0.0000,0.0000,-0.0000,1982.0000,1064.0000,1500.0000,1996.0000
304553.0790,2.0000,1995.0000,1000.0000,1455.0000,218.0000,-116.0000,-14.0000,634.0000,-439.0000,5771.0000,0.1117,0.6315,0.5818,-0.5002,90.1900,-67.1300,-87.1300,-11.3700,-6.9800,13.2600,0.0000,0.0000,-0.0000,1982.0000,1064.0000,1500.0000,1996.0000
304569.8470,2.0000,1995.0000,1000.0000,1455.0000,218.0000,-114.0000,-13.0000,666.0000,-524.0000,6126.0000,0.1003,0.6251,0.5651,-0.5290,90.0400,-67.2300,-86.8900,-11.4100,-6.8700,13.6500,0.0000,0.0000,-0.0000,1982.0000,1064.0000,1500.0000,1996.0000
304586.6270,2.0000,1995.0000,1000.0000,1455.0000,219.0000,-104.0000,-12.0000,760.0000,-560.0000,6387.0000,0.0885,0.6184,0.5475,-0.5568,89.9100,-67.3300,-86.6400,-11.5100,-6.7500,14.0200,0.0000,0.0000,-0.0000,1982.0000,1064.0000,1500.0000,1996.0000
304603.4000,2.0000,1996.0000,1033.0000,1899.0000,222.0000,-109.0000,-11.0000,802.0000,-484.0000,6489.0000,0.0758,0.6115,0.5284,-0.5841,89.9100,-67.3300,-86.6400,-11.5100,-6.7500,14.0200,0.0000,0.0000,-0.0000,1062.0000,1069.0000,1500.0000,1999.0000
304620.1600,2.0000,1998.0000,1507.0000,2000.0000,221.0000,-108.0000,-10.0000,663.0000,-303.0000,6172.0000,0.0629,0.6038,0.5086,-0.6105,89.7800,-67.4200,-86.4000,-11.6200,-6.6300,14.3500,0.0000,0.0000,-0.0000,1062.0000,1069.0000,1500.0000,1999.0000
304636.8860,2.0000,1998.0000,1507.0000,2000.0000,195.0000,-104.0000,-7.0000,685.0000,-249.0000,6053.0000,0.0507,0.5956,0.4890,-0.6353,89.6600,-67.5000,-86.1400,-11.7200,-6.5300,14.6500,0.0000,0.0000,-0.0000,1062.0000,1069.0000,1500.0000,1999.0000
304653.5250,2.0000,1998.0000,1507.0000,2000.0000,125.0000,-105.0000,4.0000,878.0000,-398.0000,6430.0000,0.0437,0.5870,0.4732,-0.6554,89.5400,-67.5700,-85.8900,-11.8000,-6.4600,14.8900,0.0000,0.0000,-0.0000,1062.0000,1069.0000,1500.0000,1999.0000
304670.4640,2.0000,1998.0000,1507.0000,2000.0000,39.0000,-120.0000,18.0000,845.0000,-453.0000,6675.0000,0.0453,0.5774,0.4634,-0.6707,89.4300,-67.6400,-85.6400,-11.9100,-6.3900,15.1100,0.0000,0.0000,-0.0000,1062.0000,1069.0000,1500.0000,1999.0000
304687.2440,2.0000,1998.0000,1507.0000,2000.0000,-37.0000,-125.0000,35.0000,661.0000,-557.0000,7124.0000,0.0563,0.5671,0.4602,-0.6808,89.3300,-67.7000,-85.3900,-12.0400,-6.2900,15.3000,0.0000,0.0000,-0.0000,1062.0000,1069.0000,1500.0000,1999.0000
304704.1040,2.0000,1998.0000,1507.0000,2000.0000,-99.0000,-134.0000,51.0000,766.0000,-613.0000,8079.0000,0.0745,0.5569,0.4617,-0.6864,89.3300,-67.7000,-85.3900,-12.0400,-6.2900,15.3000,0.0000,0.0000,-0.0000,1062.0000,1069.0000,1500.0000,1999.0000
304720.9280,2.0000,1996.0000,1000.0000,1435.0000,-139.0000,-130.0000,61.0000,923.0000,-614.0000,8986.0000,0.0981,0.5463,0.4670,-0.6884,89.2300,-67.7500,-85.1400,-12.1800,-6.1400,15.4600,0.0000,0.0000,-0.0000,1999.0000,1068.0000,1500.0000,1997.0000
304737.6660,2.0000,1996.0000,1000.0000,1434.0000,-168.0000,-130.0000,65.0000,653.0000,-370.0000,9043.0000,0.1248,0.5356,0.4749,-0.6870,89.1300,-67.8000,-84.8900,-12.3600,-5.9000,15.6200,0.0000,0.0000,-0.0000,1999.0000,1068.0000,1500.0000,1997.0000
304754.2470,2.0000,1996.0000,1000.0000,1434.0000,-163.0000,-133.0000,64.0000,778.0000,-418.0000,9297.0000,0.1524,0.5244,0.4835,-0.6841,89.0400,-67.8400,-84.6400,-12.4600,-5.6100,15.7600,0.0000,0.0000,-0.0000,1999.0000,1068.0000,1500.0000,1997.0000
304771.0140,2.0000,1996.0000,1000.0000,1434.0000,-118.0000,-139.0000,53.0000,604.0000,-284.0000,8803.0000,0.1779,0.5122,0.4895,-0.6829,88.9500,-67.8700,-84.3900,-12.5100,-5.3000,15.9100,0.0000,0.0000,-0.0000,1999.0000,1068.0000,1500.0000,1997.0000
304787.8160,2.0000,1996.0000,1000.0000,1434.0000,-55.0000,-139.0000,35.0000,704.0000,-162.0000,8850.0000,0.1979,0.4998,0.4903,-0.6860,88.9500,-67.8700,-84.3900,-12.5100,-5.3000,15.9100,0.0000,0.0000,-0.0000,1999.0000,1068.0000,1500.0000,1997.0000
304804.6620,2.0000,1996.0000,1000.0000,1434.0000,15.0000,-135.0000,14.0000,773.0000,-154.0000,9627.0000,0.2107,0.4875,0.4858,-0.6942,88.8600,-67.8900,-84.1400,-12.4700,-5.0300,16.0200,0.0000,0.0000,-0.0000,1999.0000,1068.0000,1500.0000,1997.0000
304821.4070,2.0000,1996.0000,1000.0000,1440.0000,77.0000,-128.0000,-9.0000,970.0000,-204.0000,10173.0000,0.2160,0.4761,0.4760,-0.7072,88.7900,-67.9100,-83.8900,-12.4300,-4.7300,16.1200,0.0000,0.0000,-0.0000,1995.0000,1065.0000,1500.0000,1998.0000
304838.4940,2.0000,1997.0000,1000.0000,1441.0000,129.0000,-116.0000,-26.0000,1010.0000,-302.0000,10475.0000,0.2141,0.4661,0.4614,-0.7239,88.7200,-67.9200,-83.6500,-12.4400,-4.4000,16.1800,0.0000,0.0000,-0.0000,1995.0000,1065.0000,1500.0000,1998.0000
304855.1490,2.0000,1997.0000,1000.0000,1441.0000,163.0000,-106.0000,-38.0000,688.0000,-257.0000,9938.0000,0.2073,0.4569,0.4441,-0.7424,88.6500,-67.9200,-83.4100,-12.4600,-4.1100,16.1800,0.0000,0.0000,-0.0000,1995.0000,1065.0000,1500.0000,1998.0000
304871.8900,2.0000,1997.0000,1000.0000,1441.0000,187.0000,-95.0000,-48.0000,598.0000,-378.0000,9615.0000,0.1965,0.4489,0.4246,-0.7613,88.5900,-67.9200,-83.1800,-12.4600,-3.9200,16.1000,0.0000,0.0000,-0.0000,1995.0000,1065.0000,1500.0000,1998.0000
304888.9480,2.0000,1997.0000,1000.0000,1441.0000,206.0000,-87.0000,-51.0000,598.0000,-706.0000,9560.0000,0.1829,0.4412,0.4024,-0.7810,88.5900,-67.9200,-83.1800,-12.4600,-3.9200,16.1000,0.0000,0.0000,-0.0000,1995.0000,1065.0000,1500.0000,1998.0000
304905.7450,2.0000,1997.0000,1000.0000,1441.0000,225.0000,-86.0000,-54.0000,581.0000,-647.0000,8596.0000,0.1669,0.4342,0.3779,-0.8005,88.3400,-68.0100,-82.9100,-12.9100,-3.3400,15.9900,0.0000,0.0000,-0.0000,1995.0000,1065.0000,1500.0000,1998.0000
304922.7180,2.0000,1998.0000,1512.0000,2000.0000,240.0000,-86.0000,-54.0000,592.0000,-532.0000,7700.0000,0.1492,0.4271,0.3510,-0.8198,87.9400,-68.1700,-82.6000,-13.6600,-2.5100,15.9000,0.0000,0.0000,-0.0000,1058.0000,1070.0000,1500.0000,1999.0000
304939.4310,2.0000,1998.0000,1512.0000,2000.0000,250.0000,-84.0000,-50.0000,455.0000,-641.0000,7545.0000,0.1313,0.4193,0.3225,-0.8384,87.5500,-68.3100,-82.3000,-14.2500,-1.8800,15.8000,0.0000,0.0000,-0.0000,1058.0000,1070.0000,1500.0000,1999.0000
304956.2080,2.0000,1998.0000,1512.0000,2000.0000,227.0000,-85.0000,-43.0000,625.0000,-730.0000,7307.0000,0.1140,0.4111,0.2935,-0.8555,87.1800,-68.4300,-82.0100,-14.7400,-1.4000,15.6800,0.0000,0.0000,-0.0000,1058.0000,1070.0000,1500.0000,1999.0000
304973.0950,2.0000,1998.0000,1512.0000,2000.0000,147.0000,-99.0000,-25.0000,733.0000,-812.0000,7558.0000,0.1021,0.4011,0.2702,-0.8693,86.7600,-68.5200,-81.7000,-15.3600,-0.7600,15.5500,0.0000,0.0000,-0.0000,1058.0000,1070.0000,1500.0000,1999.0000
304990.0680,2.0000,1998.0000,1512.0000,2000.0000,43.0000,-104.0000,3.0000,608.0000,-1091.0000,8173.0000,0.0992,0.3886,0.2572,-0.8792,86.7600,-68.5200,-81.7000,-15.3600,-0.7600,15.5500,0.0000,0.0000,-0.0000,1058.0000,1070.0000,1500.0000,1999.0000
305006.7930,2.0000,1998.0000,1512.0000,2000.0000,-51.0000,-121.0000,31.0000,464.0000,-947.0000,8411.0000,0.1056,0.3749,0.2553,-0.8849,86.3100,-68.5800,-81.4000,-16.0800,-0.0100,15.3500,0.0000,0.0000,-0.0000,1058.0000,1070.0000,1500.0000,1999.0000
305023.8010,2.0000,1998.0000,1315.0000,2000.0000,-116.0000,-125.0000,54.0000,92.0000,-811.0000,8904.0000,0.1204,0.3585,0.2622,-0.8878,85.8700,-68.6300,-81.0900,-16.7000,0.6600,15.0800,0.0000,0.0000,-0.0000,1244.0000,1058.0000,1500.0000,1999.0000
305040.6280,2.0000,1998.0000,1314.0000,2000.0000,-158.0000,-134.0000,69.0000,319.0000,-738.0000,9794.0000,0.1399,0.3419,0.2744,-0.8878,85.4600,-68.6600,-80.8100,-17.1700,1.3100,14.7600,0.0000,0.0000,-0.0000,1244.0000,1058.0000,1500.0000,1999.0000
305057.6220,2.0000,1998.0000,1314.0000,2000.0000,-172.0000,-133.0000,78.0000,600.0000,-604.0000,9772.0000,0.1628,0.3238,0.2898,-0.8858,85.0600,-68.6700,-80.5300,-17.5600,1.9600,14.3900,0.0000,0.0000,-0.0000,1244.0000,1058.0000,1500.0000,1999.0000
305074.1950,2.0000,1998.0000,1314.0000,2000.0000,-165.0000,-161.0000,76.0000,547.0000,-433.0000,10273.0000,0.1860,0.3043,0.3039,-0.8834,84.6100,-68.6500,-80.2400,-18.0900,2.8300,14.0200,0.0000,0.0000,-0.0000,1244.0000,1058.0000,1500.0000,1999.0000
305090.9470,2.0000,1998.0000,1314.0000,2000.0000,-159.0000,-161.0000,73.0000,537.0000,-393.0000,11571.0000,0.2094,0.2821,0.3169,-0.8810,84.6100,-68.6500,-80.2400,-18.0900,2.8300,14.0200,0.0000,0.0000,-0.0000,1244.0000,1058.0000,1500.0000,1999.0000
305107.6020,2.0000,1998.0000,1314.0000,2000.0000,-150.0000,-163.0000,66.0000,949.0000,-353.0000,12816.0000,0.2314,0.2598,0.3286,-0.8780,84.1200,-68.5900,-79.9500,-18.6800,3.9000,13.5600,0.0000,0.0000,-0.0000,1244.0000,1058.0000,1500.0000,1999.0000
305124.0940,2.0000,1998.0000,1314.0000,2000.0000,-137.0000,-163.0000,57.0000,1001.0000,-227.0000,13109.0000,0.2514,0.2375,0.3386,-0.8751,83.6600,-68.5100,-79.6900,-19.1500,4.9500,13.0200,0.0000,0.0000,-0.0000,1244.0000,1058.0000,1500.0000,1999.0000
305140.8130,2.0000,1998.0000,1314.0000,2000.0000,-133.0000,-154.0000,50.0000,1159.0000,-397.0000,13790.0000,0.2697,0.2151,0.3480,-0.8717,83.2300,-68.4200,-79.4400,-19.4900,5.9400,12.4400,0.0000,0.0000,-0.0000,1244.0000,1058.0000,1500.0000,1999.0000
305157.6350,2.0000,1998.0000,1072.0000,1952.0000,-126.0000,-150.0000,41.0000,1007.0000,-215.0000,13505.0000,0.2861,0.1932,0.3566,-0.8681,82.8100,-68.3100,-79.1900,-19.7200,6.8800,11.8100,0.0000,0.0000,-0.0000,1487.0000,1060.0000,1500.0000,1999.0000
305174.4130,2.0000,1998.0000,1072.0000,1952.0000,-112.0000,-145.0000,30.0000,935.0000,-67.0000,13160.0000,0.3006,0.1718,0.3643,-0.8645,82.3600,-68.1600,-78.9600,-20.0100,7.8700,11.1900,0.0000,0.0000,-0.0000,1487.0000,1060.0000,1500.0000,1999.0000
305191.6110,2.0000,1998.0000,1072.0000,1952.0000,-86.0000,-143.0000,17.0000,799.0000,58.0000,12788.0000,0.3132,0.1500,0.3698,-0.8618,82.3600,-68.1600,-78.9600,-20.0100,7.8700,11.1900,0.0000,0.0000,-0.0000,1487.0000,1060.0000,1500.0000,1999.0000
305208.2410,2.0000,1998.0000,1072.0000,1952.0000,-70.0000,-142.0000,7.0000,894.0000,15.0000,12876.0000,0.3232,0.1295,0.3723,-0.8603,81.8900,-67.9800,-78.7400,-20.2800,8.8700,10.5900,0.0000,0.0000,-0.0000,1487.0000,1060.0000,1500.0000,1999.0000
305225.2920,2.0000,1998.0000,1072.0000,1952.0000,-61.0000,-139.0000,-2.0000,1106.0000,-279.0000,13310.0000,0.3316,0.1089,0.3739,-0.8593,81.4300,-67.8000,-78.5300,-20.4400,9.7600,9.9900,0.0000,0.0000,-0.0000,1487.0000,1060.0000,1500.0000,1999.0000
305242.1720,2.0000,1998.0000,1073.0000,1953.0000,-49.0000,-137.0000,-9.0000,1014.0000,-400.0000,13205.0000,0.3385,0.0887,0.3740,-0.8589,81.0000,-67.6000,-78.3400,-20.5400,10.5900,9.3400,0.0000,0.0000,-0.0000,1485.0000,1060.0000,1500.0000,1999.0000
305259.0810,2.0000,1998.0000,1074.0000,1954.0000,-42.0000,-133.0000,-11.0000,905.0000,-394.0000,12933.0000,0.3444,0.0690,0.3729,-0.8588,80.5700,-67.3900,-78.1600,-20.5500,11.3300,8.6700,0.0000,0.0000,-0.0000,1485.0000,1060.0000,1500.0000,1999.0000
305276.0210,2.0000,1998.0000,1074.0000,1954.0000,-39.0000,-131.0000,-12.0000,859.0000,-550.0000,12715.0000,0.3499,0.0497,0.3713,-0.8586,80.1100,-67.1500,-77.9900,-20.6000,12.1500,8.0200,0.0000,0.0000,-0.0000,1485.0000,1060.0000,1500.0000,1999.0000
305293.0780,2.0000,1998.0000,1074.0000,1954.0000,-33.0000,-131.0000,-11.0000,939.0000,-610.0000,12565.0000,0.3554,0.0307,0.3691,-0.8582,80.1100,-67.1500,-77.9900,-20.6000,12.1500,8.0200,0.0000,0.0000,-0.0000,1485.0000,1060.0000,1500.0000,1999.0000
305310.1180,2.0000,1998.0000,1074.0000,1954.0000,-32.0000,-137.0000,-7.0000,957.0000,-786.0000,12430.0000,0.3612,0.0113,0.3661,-0.8575,79.6300,-66.8700,-77.8300,-20.6500,13.0100,7.3500,0.0000,0.0000,-0.0000,1485.0000,1060.0000,1500.0000,1999.0000
305326.9110,2.0000,1998.0000,1074.0000,1954.0000,-31.0000,-137.0000,-3.0000,843.0000,-747.0000,12037.0000,0.3673,-0.0075,0.3626,-0.8565,79.1800,-66.6000,-77.6800,-20.6500,13.7500,6.6900,0.0000,0.0000,-0.0000,1485.0000,1060.0000,1500.0000,1999.0000
305343.8310,2.0000,1998.0000,1110.0000,1992.0000,-24.0000,-146.0000,3.0000,802.0000,-700.0000,11784.0000,0.3743,-0.0265,0.3580,-0.8550,78.7400,-66.3100,-77.5500,-20.5900,14.3800,6.0400,0.0000,0.0000,-0.0000,1448.0000,1059.0000,1500.0000,1999.0000
305360.6350,2.0000,1998.0000,1110.0000,1992.0000,-21.0000,-152.0000,8.0000,894.0000,-785.0000,11871.0000,0.3822,-0.0460,0.3525,-0.8530,78.3200,-66.0300,-77.4300,-20.4700,14.9000,5.4000,0.0000,0.0000,-0.0000,1448.0000,1059.0000,1500.0000,1999.0000
305377.4510,2.0000,1998.0000,1110.0000,1992.0000,-24.0000,-153.0000,14.0000,890.0000,-695.0000,11847.0000,0.3910,-0.0656,0.3468,-0.8501,77.8600,-65.7100,-77.3200,-20.2700,15.5700,4.7400,0.0000,0.0000,-0.0000,1448.0000,1059.0000,1500.0000,1999.0000
305394.4470,2.0000,1998.0000,1110.0000,1992.0000,-31.0000,-148.0000,20.0000,945.0000,-637.0000,12163.0000,0.4002,-0.0853,0.3416,-0.8461,77.8600,-65.7100,-77.3200,-20.2700,15.5700,4.7400,0.0000,0.0000,-0.0000,1448.0000,1059.0000,1500.0000,1999.0000
305411.2400,2.0000,1998.0000,1110.0000,1992.0000,-34.0000,-148.0000,23.0000,1176.0000,-766.0000,12600.0000,0.4093,-0.1042,0.3373,-0.8413,77.4000,-65.3700,-77.2200,-20.0000,16.2700,4.0700,0.0000,0.0000,-0.0000,1448.0000,1059.0000,1500.0000,1999.0000
305427.8690,2.0000,1998.0000,1110.0000,1992.0000,-42.0000,-145.0000,26.0000,1214.0000,-730.0000,12647.0000,0.4184,-0.1229,0.3334,-0.8359,76.9600,-65.0200,-77.1400,-19.6700,16.9200,3.3600,0.0000,0.0000,-0.0000,1448.0000,1059.0000,1500.0000,1999.0000
305444.7650,2.0000,1998.0000,1487.0000,2000.0000,-49.0000,-136.0000,28.0000,1170.0000,-572.0000,12426.0000,0.4274,-0.1418,0.3306,-0.8294,76.5400,-64.6700,-77.0600,-19.3100,17.4800,2.6500,0.0000,0.0000,-0.0000,1080.0000,1067.0000,1500.0000,1999.0000
305461.3240,2.0000,1998.0000,1487.0000,2000.0000,-55.0000,-135.0000,28.0000,1132.0000,-455.0000,12226.0000,0.4357,-0.1597,0.3291,-0.8224,76.1500,-64.3300,-77.0100,-18.9100,17.9400,1.9700,0.0000,0.0000,-0.0000,1080.0000,1067.0000,1500.0000,1999.0000
305478.3410,2.0000,1998.0000,1487.0000,2000.0000,-71.0000,-122.0000,33.0000,1152.0000,-450.0000,12156.0000,0.4438,-0.1777,0.3291,-0.8144,75.7400,-63.9400,-76.9600,-18.4600,18.5100,1.3400,0.0000,0.0000,-0.0000,1080.0000,1067.0000,1500.0000,1999.0000
305495.3860,2.0000,1998.0000,1487.0000,2000.0000,-95.0000,-108.0000,39.0000,1142.0000,-393.0000,12029.0000,0.4512,-0.1954,0.3323,-0.8049,75.7400,-63.9400,-76.9600,-18.4600,18.5100,1.3400,0.0000,0.0000,-0.0000,1080.0000,1067.0000,1500.0000,1999.0000
305512.0990,2.0000,1998.0000,1487.0000,2000.0000,-121.0000,-89.0000,46.0000,1048.0000,-299.0000,11668.0000,0.4574,-0.2117,0.3398,-0.7940,75.3200,-63.5400,-76.9200,-17.9800,19.1000,0.7300,0.0000,0.0000,-0.0000,1080.0000,1067.0000,1500.0000,1999.0000
305528.7590,2.0000,1998.0000,1487.0000,2000.0000,-140.0000,-73.0000,52.0000,1047.0000,-328.0000,11342.0000,0.4625,-0.2267,0.3513,-0.7819,74.9200,-63.1300,-76.9000,-17.4900,19.5900,0.1600,0.0000,0.0000,-0.0000,1080.0000,1067.0000,1500.0000,1999.0000
305545.4770,2.0000,1998.0000,1304.0000,2000.0000,-157.0000,-67.0000,54.0000,1122.0000,-279.0000,10681.0000,0.4664,-0.2415,0.3656,-0.7685,74.5500,-62.7300,-76.8800,-17.0100,20.0000,-0.3300,0.0000,0.0000,-0.0000,1253.0000,1057.0000,1500.0000,1999.0000
305562.2030,2.0000,1998.0000,1303.0000,2000.0000,-164.0000,-63.0000,56.0000,1119.0000,-274.0000,9976.0000,0.4694,-0.2562,0.3815,-0.7540,74.2000,-62.3500,-76.8700,-16.5700,20.3200,-0.7200,0.0000,0.0000,-0.0000,1253.0000,1057.0000,1500.0000,1999.0000
305579.1160,2.0000,1998.0000,1303.0000,2000.0000,-152.0000,-66.0000,54.0000,1065.0000,-479.0000,9324.0000,0.4723,-0.2709,0.3969,-0.7389,73.8200,-61.9000,-76.8700,-16.0500,20.8300,-1.0400,0.0000,0.0000,-0.0000,1253.0000,1057.0000,1500.0000,1999.0000
305596.0900,2.0000,1998.0000,1303.0000,2000.0000,-141.0000,-90.0000,49.0000,865.0000,-361.0000,8618.0000,0.4763,-0.2864,0.4095,-0.7235,73.8200,-61.9000,-76.8700,-16.0500,20.8300,-1.0400,0.0000,0.0000,-0.0000,1253.0000,1057.0000,1500.0000,1999.0000
305612.8450,2.0000,1998.0000,1303.0000,2000.0000,-137.0000,-101.0000,44.0000,741.0000,-140.0000,8125.0000,0.4808,-0.3029,0.4193,-0.7080,73.4500,-61.4300,-76.8700,-15.5600,21.3000,-1.2800,0.0000,0.0000,-0.0000,1253.0000,1057.0000,1500.0000,1999.0000
305629.6910,2.0000,1998.0000,1303.0000,2000.0000,-135.0000,-122.0000,40.0000,714.0000,-79.0000,8319.0000,0.4856,-0.3214,0.4274,-0.6916,73.1000,-60.9800,-76.8800,-15.1100,21.6700,-1.4200,0.0000,0.0000,-0.0000,1253.0000,1057.0000,1500.0000,1999.0000
305646.2110,2.0000,1998.0000,1390.0000,2000.0000,-127.0000,-133.0000,35.0000,748.0000,-76.0000,8535.0000,0.4904,-0.3403,0.4335,-0.6751,72.7800,-60.5400,-76.8800,-14.6700,21.9500,-1.5200,0.0000,0.0000,-0.0000,1084.0000,1067.0000,1500.0000,1999.0000
305663.1390,2.0000,1998.0000,1483.0000,2000.0000,-122.0000,-141.0000,32.0000,1018.0000,-333.0000,9913.0000,0.4956,-0.3605,0.4376,-0.6580,72.4800,-60.1300,-76.8900,-14.2100,22.1700,-1.6000,0.0000,0.0000,-0.0000,1084.0000,1067.0000,1500.0000,1999.0000
305679.9190,2.0000,1998.0000,1483.0000,2000.0000,-115.0000,-142.0000,28.0000,1046.0000,-319.0000,10054.0000,0.5007,-0.3803,0.4403,-0.6410,72.4800,-60.1300,-76.8900,-14.2100,22.1700,-1.6000,0.0000,0.0000,-0.0000,1084.0000,1067.0000,1500.0000,1999.0000
305696.9830,2.0000,1998.0000,1483.0000,2000.0000,-118.0000,-134.0000,28.0000,1215.0000,-218.0000,10201.0000,0.5053,-0.3999,0.4427,-0.6235,72.1500,-59.6300,-76.9000,-13.4800,22.6100,-1.7100,0.0000,0.0000,-0.0000,1084.0000,1067.0000,1500.0000,1999.0000
305713.8100,2.0000,1998.0000,1483.0000,2000.0000,-134.0000,-124.0000,29.0000,1132.0000,-320.0000,10621.0000,0.5086,-0.4193,0.4462,-0.6053,71.8400,-59.1100,-76.9100,-12.7300,23.0100,-1.7800,0.0000,0.0000,-0.0000,1084.0000,1067.0000,1500.0000,1999.0000
305730.4690,2.0000,1998.0000,1483.0000,2000.0000,-148.0000,-115.0000,31.0000,1267.0000,-507.0000,11127.0000,0.5100,-0.4382,0.4515,-0.5866,71.5500,-58.6200,-76.9300,-11.9900,23.2900,-1.8200,0.0000,0.0000,-0.0000,1084.0000,1067.0000,1500.0000,1999.0000
305747.2860,2.0000,1998.0000,1511.0000,2000.0000,-156.0000,-101.0000,34.0000,1291.0000,-550.0000,10696.0000,0.5097,-0.4563,0.4586,-0.5672,71.3100,-58.1500,-76.9400,-11.2700,23.4900,-1.8400,0.0000,0.0000,-0.0000,1059.0000,1070.0000,1500.0000,1999.0000
305763.7040,2.0000,1998.0000,1511.0000,2000.0000,-162.0000,-89.0000,39.0000,1019.0000,-491.0000,10166.0000,0.5081,-0.4728,0.4671,-0.5479,71.0900,-57.7200,-76.9500,-10.6600,23.5900,-1.8000,0.0000,0.0000,-0.0000,1059.0000,1070.0000,1500.0000,1999.0000
305780.5870,2.0000,1998.0000,1511.0000,2000.0000,-164.0000,-78.0000,43.0000,1068.0000,-496.0000,9604.0000,0.5054,-0.4885,0.4769,-0.5278,71.0900,-57.7200,-76.9500,-10.6600,23.5900,-1.8000,0.0000,0.0000,-0.0000,1059.0000,1070.0000,1500.0000,1999.0000
305797.5760,2.0000,1998.0000,1511.0000,2000.0000,-166.0000,-71.0000,46.0000,1205.0000,-592.0000,9246.0000,0.5019,-0.5034,0.4873,-0.5072,70.8500,-57.1900,-76.9700,-9.7900,23.7200,-1.7000,0.0000,0.0000,-0.0000,1059.0000,1070.0000,1500.0000,1999.0000
305814.5260,2.0000,1998.0000,1511.0000,2000.0000,-176.0000,-77.0000,48.0000,791.0000,-394.0000,7869.0000,0.4979,-0.5183,0.4977,-0.4855,70.6300,-56.6600,-76.9900,-8.9800,23.8200,-1.5600,0.0000,0.0000,-0.0000,1059.0000,1070.0000,1500.0000,1999.0000
305831.2870,2.0000,1998.0000,1511.0000,2000.0000,-186.0000,-74.0000,51.0000,604.0000,-109.0000,6710.0000,0.4927,-0.5329,0.5087,-0.4631,70.4300,-56.1800,-77.0000,-8.3900,23.8300,-1.3600,0.0000,0.0000,-0.0000,1059.0000,1070.0000,1500.0000,1999.0000
305848.1510,2.0000,1998.0000,1510.0000,2000.0000,-193.0000,-87.0000,53.0000,843.0000,-258.0000,6829.0000,0.4871,-0.5478,0.5199,-0.4386,70.2600,-55.7100,-77.0000,-7.9600,23.7700,-1.0800,0.0000,0.0000,-0.0000,1060.0000,1070.0000,1500.0000,1999.0000
305864.8960,2.0000,1998.0000,1510.0000,2000.0000,-202.0000,-94.0000,55.0000,526.0000,-230.0000,6629.0000,0.4812,-0.5630,0.5304,-0.4124,70.1100,-55.2800,-77.0000,-7.5800,23.6900,-0.7500,0.0000,0.0000,-0.0000,1060.0000,1070.0000,1500.0000,1999.0000
305881.6130,2.0000,1998.0000,1510.0000,2000.0000,-206.0000,-92.0000,56.0000,500.0000,-96.0000,6517.0000,0.4748,-0.5783,0.5404,-0.3849,70.1100,-55.2800,-77.0000,-7.5800,23.6900,-0.7500,0.0000,0.0000,-0.0000,1060.0000,1070.0000,1500.0000,1999.0000
305898.6400,2.0000,1998.0000,1510.0000,2000.0000,-213.0000,-102.0000,56.0000,755.0000,-155.0000,6880.0000,0.4676,-0.5941,0.5498,-0.3552,69.9500,-54.7400,-77.0000,-6.7800,23.6200,-0.3900,0.0000,0.0000,-0.0000,1060.0000,1070.0000,1500.0000,1999.0000
305915.6820,2.0000,1998.0000,1510.0000,2000.0000,-215.0000,-104.0000,55.0000,906.0000,-100.0000,7011.0000,0.4597,-0.6095,0.5585,-0.3244,69.8100,-54.2300,-76.9900,-6.0000,23.5200,-0.0000,0.0000,0.0000,-0.0000,1060.0000,1070.0000,1500.0000,1999.0000
305932.2950,2.0000,1998.0000,1510.0000,2000.0000,-212.0000,-114.0000,52.0000,784.0000,0.0000,6921.0000,0.4520,-0.6242,0.5655,-0.2938,69.6900,-53.7400,-76.9700,-5.3000,23.4000,0.4600,0.0000,0.0000,-0.0000,1060.0000,1070.0000,1500.0000,1999.0000
305948.8930,2.0000,1998.0000,1510.0000,2000.0000,-212.0000,-116.0000,52.0000,659.0000,-109.0000,7228.0000,0.4441,-0.6383,0.5714,-0.2624,69.5900,-53.3000,-76.9400,-4.7200,23.2300,0.9600,0.0000,0.0000,-0.0000,1060.0000,1070.0000,1500.0000,1999.0000
305965.4700,2.0000,1998.0000,1510.0000,2000.0000,-214.0000,-113.0000,47.0000,656.0000,-81.0000,7533.0000,0.4353,-0.6518,0.5764,-0.2309,69.5200,-52.8900,-76.9100,-4.2000,23.0000,1.5000,0.0000,0.0000,-0.0000,1060.0000,1070.0000,1500.0000,1999.0000
305982.3590,2.0000,1998.0000,1510.0000,2000.0000,-213.0000,-109.0000,43.0000,644.0000,35.0000,7453.0000,0.4258,-0.6655,0.5800,-0.1986,69.5200,-52.8900,-76.9100,-4.2000,23.0000,1.5000,0.0000,0.0000,-0.0000,1060.0000,1070.0000,1500.0000,1999.0000
305999.3480,2.0000,1998.0000,1510.0000,2000.0000,-210.0000,-104.0000,38.0000,724.0000,-11.0000,7521.0000,0.4150,-0.6783,0.5829,-0.1670,69.4500,-52.3800,-76.8600,-3.2800,22.9000,2.0500,0.0000,0.0000,-0.0000,1060.0000,1070.0000,1500.0000,1999.0000
306016.2520,2.0000,1998.0000,1510.0000,2000.0000,-205.0000,-103.0000,35.0000,756.0000,12.0000,7401.0000,0.4041,-0.6903,0.5845,-0.1361,69.4000,-51.8800,-76.8100,-2.4500,22.7700,2.6700,0.0000,0.0000,-0.0000,1060.0000,1070.0000,1500.0000,1999.0000
306033.2360,2.0000,1998.0000,1510.0000,2000.0000,-201.0000,-105.0000,31.0000,447.0000,94.0000,7021.0000,0.3927,-0.7015,0.5852,-0.1059,69.3700,-51.4300,-76.7400,-1.7800,22.6000,3.2900,0.0000,0.0000,-0.0000,1060.0000,1070.0000,1500.0000,1999.0000
306049.7580,2.0000,1998.0000,1510.0000,2000.0000,-196.0000,-101.0000,30.0000,736.0000,-213.0000,7694.0000,0.3818,-0.7116,0.5848,-0.0767,69.3500,-51.0000,-76.6700,-1.2400,22.4000,3.9500,0.0000,0.0000,-0.0000,1060.0000,1070.0000,1500.0000,1999.0000
306066.4070,2.0000,1998.0000,1511.0000,2000.0000,-192.0000,-104.0000,30.0000,846.0000,-433.0000,7928.0000,0.3707,-0.7208,0.5837,-0.0481,69.3500,-50.6100,-76.5800,-0.7600,22.1700,4.6400,0.0000,0.0000,-0.0000,1058.0000,1070.0000,1500.0000,1999.0000
306083.3580,2.0000,1998.0000,1512.0000,2000.0000,-192.0000,-99.0000,29.0000,943.0000,-340.0000,7516.0000,0.3589,-0.7295,0.5820,-0.0189,69.3500,-50.6100,-76.5800,-0.7600,22.1700,4.6400,0.0000,0.0000,-0.0000,1058.0000,1070.0000,1500.0000,1999.0000
306100.3230,2.0000,1998.0000,1512.0000,2000.0000,-189.0000,-105.0000,29.0000,867.0000,-203.0000,6999.0000,0.3473,-0.7374,0.5793,0.0107,69.3700,-50.1100,-76.4900,0.0100,21.9900,5.3400,0.0000,0.0000,-0.0000,1058.0000,1070.0000,1500.0000,1999.0000
306116.9640,2.0000,1998.0000,1512.0000,2000.0000,-190.0000,-106.0000,29.0000,919.0000,-230.0000,7025.0000,0.3354,-0.7443,0.5761,0.0394,69.4100,-49.6400,-76.3800,0.6400,21.8100,6.0200,0.0000,0.0000,-0.0000,1058.0000,1070.0000,1500.0000,1999.0000
306133.9190,2.0000,1998.0000,1512.0000,2000.0000,-190.0000,-109.0000,30.0000,775.0000,-193.0000,6820.0000,0.3233,-0.7505,0.5722,0.0689,69.4500,-49.2000,-76.2600,1.1300,21.6200,6.7000,0.0000,0.0000,-0.0000,1058.0000,1070.0000,1500.0000,1999.0000
306150.5930,2.0000,1998.0000,1512.0000,2000.0000,-195.0000,-113.0000,31.0000,784.0000,-450.0000,7320.0000,0.3111,-0.7559,0.5675,0.0989,69.5000,-48.8000,-76.1400,1.5100,21.4000,7.3800,0.0000,0.0000,-0.0000,1058.0000,1070.0000,1500.0000,1999.0000
306167.4890,2.0000,1998.0000,1512.0000,2000.0000,-200.0000,-117.0000,32.0000,938.0000,-435.0000,7499.0000,0.2980,-0.7604,0.5622,0.1299,69.5500,-48.4300,-76.0000,1.8100,21.1500,8.1000,0.0000,0.0000,-0.0000,1058.0000,1070.0000,1500.0000,1999.0000
306184.1650,2.0000,1998.0000,1512.0000,2000.0000,-205.0000,-114.0000,34.0000,725.0000,-84.0000,7240.0000,0.2843,-0.7643,0.5559,0.1609,69.5500,-48.4300,-76.0000,1.8100,21.1500,8.1000,0.0000,0.0000,-0.0000,1058.0000,1070.0000,1500.0000,1999.0000
306201.2580,2.0000,1998.0000,1512.0000,2000.0000,-215.0000,-118.0000,31.0000,503.0000,3.0000,6973.0000,0.2689,-0.7677,0.5487,0.1931,69.6300,-47.9500,-75.8500,2.3500,21.0000,8.8100,0.0000,0.0000,-0.0000,1058.0000,1070.0000,1500.0000,1999.0000
306218.2200,2.0000,1998.0000,1512.0000,2000.0000,-215.0000,-119.0000,32.0000,695.0000,-133.0000,7509.0000,0.2529,-0.7701,0.5406,0.2252,69.7300,-47.5000,-75.6900,2.7400,20.8400,9.4500,0.0000,0.0000,-0.0000,1058.0000,1070.0000,1500.0000,1999.0000
306235.2530,2.0000,1998.0000,1512.0000,2000.0000,-215.0000,-117.0000,28.0000,720.0000,-152.0000,7804.0000,0.2362,-0.7718,0.5314,0.2571,69.8200,-47.0800,-75.5200,3.0400,20.6400,10.1300,0.0000,0.0000,-0.0000,1058.0000,1070.0000,1500.0000,1999.0000
306251.8830,2.0000,1998.0000,1512.0000,2000.0000,-219.0000,-114.0000,27.0000,454.0000,-90.0000,7731.0000,0.2198,-0.7726,0.5212,0.2882,69.9100,-46.6900,-75.3400,3.2300,20.4200,10.8300,0.0000,0.0000,-0.0000,1058.0000,1070.0000,1500.0000,1999.0000
306268.5990,2.0000,1998.0000,1512.0000,2000.0000,-221.0000,-109.0000,23.0000,427.0000,-37.0000,7684.0000,0.2019,-0.7732,0.5102,0.3180,70.0000,-46.3300,-75.1600,3.3200,20.1900,11.4800,0.0000,0.0000,-0.0000,1058.0000,1070.0000,1500.0000,1999.0000
306285.7160,2.0000,1998.0000,1512.0000,2000.0000,-222.0000,-118.0000,16.0000,466.0000,40.0000,7705.0000,0.1834,-0.7730,0.4974,0.3485,70.0000,-46.3300,-75.1600,3.3200,20.1900,11.4800,0.0000,0.0000,-0.0000,1058.0000,1070.0000,1500.0000,1999.0000
306302.3660,2.0000,1998.0000,1512.0000,2000.0000,-221.0000,-112.0000,11.0000,724.0000,-61.0000,8241.0000,0.1658,-0.7720,0.4838,0.3774,70.1300,-45.8600,-74.9600,3.6200,19.9800,12.1000,0.0000,0.0000,-0.0000,1058.0000,1070.0000,1500.0000,1999.0000
306319.2620,2.0000,1998.0000,1512.0000,2000.0000,-222.0000,-115.0000,5.0000,571.0000,10.0000,8193.0000,0.1481,-0.7704,0.4685,0.4062,70.2600,-45.4300,-74.7600,3.8200,19.7600,12.7300,0.0000,0.0000,-0.0000,1058.0000,1070.0000,1500.0000,1999.0000
306336.0220,2.0000,1998.0000,1512.0000,2000.0000,-222.0000,-107.0000,3.0000,638.0000,-122.0000,8455.0000,0.1298,-0.7683,0.4524,0.4338,70.3900,-45.0300,-74.5500,3.9200,19.5500,13.3200,0.0000,0.0000,-0.0000,1058.0000,1070.0000,1500.0000,1999.0000
306352.7060,2.0000,1998.0000,1512.0000,2000.0000,-222.0000,-101.0000,0.0000,657.0000,-101.0000,8124.0000,0.1113,-0.7658,0.4355,0.4599,70.5000,-44.6600,-74.3400,3.9500,19.3400,13.8900,0.0000,0.0000,-0.0000,1058.0000,1070.0000,1500.0000,1999.0000
306369.4630,2.0000,1998.0000,1512.0000,2000.0000,-227.0000,-96.0000,1.0000,523.0000,-13.0000,7710.0000,0.0917,-0.7628,0.4181,0.4847,70.6100,-44.3100,-74.1100,3.9300,19.1800,14.4200,0.0000,0.0000,-0.0000,1058.0000,1070.0000,1500.0000,1999.0000
306386.2880,2.0000,1998.0000,1512.0000,2000.0000,-226.0000,-101.0000,2.0000,388.0000,-37.0000,7477.0000,0.0714,-0.7589,0.3997,0.5091,70.6100,-44.3100,-74.1100,3.9300,19.1800,14.4200,0.0000,0.0000,-0.0000,1058.0000,1070.0000,1500.0000,1999.0000
306403.3610,2.0000,1998.0000,1512.0000,2000.0000,-224.0000,-102.0000,4.0000,509.0000,-248.0000,7841.0000,0.0512,-0.7532,0.3807,0.5340,70.7600,-43.8700,-73.8800,4.0000,19.0000,14.8900,0.0000,0.0000,-0.0000,1058.0000,1070.0000,1500.0000,1999.0000
306420.3990,2.0000,1998.0000,1512.0000,2000.0000,-222.0000,-94.0000,6.0000,580.0000,-375.0000,8300.0000,0.0305,-0.7469,0.3618,0.5571,70.9100,-43.4500,-73.6400,4.0100,18.8300,15.3400,0.0000,0.0000,-0.0000,1058.0000,1070.0000,1500.0000,1999.0000
306437.0450,2.0000,1998.0000,1512.0000,2000.0000,-223.0000,-89.0000,6.0000,511.0000,-249.0000,8226.0000,0.0102,-0.7400,0.3430,0.5785,71.0400,-43.0700,-73.3900,3.9400,18.6500,15.7900,0.0000,0.0000,-0.0000,1058.0000,1070.0000,1500.0000,1999.0000
306454.0060,2.0000,1998.0000,1512.0000,2000.0000,-225.0000,-98.0000,7.0000,390.0000,-205.0000,8129.0000,-0.0106,-0.7318,0.3234,0.5999,71.1600,-42.7100,-73.1300,3.8400,18.5100,16.1600,0.0000,0.0000,-0.0000,1058.0000,1070.0000,1500.0000,1999.0000
306471.1580,2.0000,1998.0000,1507.0000,2000.0000,-232.0000,-93.0000,10.0000,258.0000,-169.0000,8244.0000,-0.0325,-0.7222,0.3028,0.6211,71.2800,-42.3800,-72.8800,3.7000,18.3900,16.4800,0.0000,0.0000,-0.0000,1063.0000,1069.0000,1500.0000,1999.0000
306488.3800,2.0000,1998.0000,1506.0000,2000.0000,-234.0000,-86.0000,9.0000,365.0000,34.0000,7991.0000,-0.0554,-0.7121,0.2812,0.6409,71.2800,-42.3800,-72.8800,3.7000,18.3900,16.4800,0.0000,0.0000,-0.0000,1063.0000,1069.0000,1500.0000,1999.0000
306505.2540,2.0000,1998.0000,1506.0000,2000.0000,-230.0000,-90.0000,8.0000,398.0000,-53.0000,8259.0000,-0.0777,-0.7012,0.2598,0.6594,71.4300,-41.9500,-72.6100,3.5600,18.3800,16.7500,0.0000,0.0000,-0.0000,1063.0000,1069.0000,1500.0000,1999.0000
306521.8710,2.0000,1998.0000,1506.0000,2000.0000,-223.0000,-91.0000,7.0000,667.0000,-241.0000,8652.0000,-0.0988,-0.6896,0.2388,0.6765,71.5700,-41.5400,-72.3400,3.4100,18.3800,16.9700,0.0000,0.0000,-0.0000,1063.0000,1069.0000,1500.0000,1999.0000
306538.7600,2.0000,1998.0000,1506.0000,2000.0000,-221.0000,-91.0000,5.0000,728.0000,-470.0000,9159.0000,-0.1198,-0.6771,0.2175,0.6927,71.6900,-41.1600,-72.0700,3.2100,18.3900,17.1600,0.0000,0.0000,-0.0000,1063.0000,1069.0000,1500.0000,1999.0000
306555.4120,2.0000,1998.0000,1506.0000,2000.0000,-221.0000,-87.0000,5.0000,617.0000,-405.0000,8900.0000,-0.1403,-0.6641,0.1963,0.7076,71.8000,-40.8000,-71.8000,2.9800,18.4000,17.3100,0.0000,0.0000,-0.0000,1063.0000,1069.0000,1500.0000,1999.0000
306572.2460,2.0000,1998.0000,1460.0000,2000.0000,-225.0000,-95.0000,5.0000,231.0000,-40.0000,8260.0000,-0.1607,-0.6497,0.1745,0.7222,71.9000,-40.4600,-71.5300,2.8100,18.4400,17.3700,0.0000,0.0000,-0.0000,1105.0000,1065.0000,1500.0000,1999.0000
306588.8800,2.0000,1998.0000,1460.0000,2000.0000,-231.0000,-95.0000,3.0000,-72.0000,132.0000,7978.0000,-0.1812,-0.6341,0.1522,0.7362,71.9000,-40.4600,-71.5300,2.8100,18.4400,17.3700,0.0000,0.0000,-0.0000,1105.0000,1065.0000,1500.0000,1999.0000
306605.5380,2.0000,1998.0000,1460.0000,2000.0000,-226.0000,-96.0000,4.0000,-158.0000,13.0000,8677.0000,-0.2016,-0.6176,0.1294,0.7491,72.0300,-40.0300,-71.2600,2.5700,18.6000,17.3600,0.0000,0.0000,-0.0000,1105.0000,1065.0000,1500.0000,1999.0000
306622.6130,2.0000,1998.0000,1460.0000,2000.0000,-219.0000,-94.0000,4.0000,17.0000,-237.0000,9381.0000,-0.2217,-0.6002,0.1068,0.7610,72.1500,-39.6100,-70.9900,2.3400,18.7500,17.2800,0.0000,0.0000,-0.0000,1105.0000,1065.0000,1500.0000,1999.0000
306639.5330,2.0000,1998.0000,1460.0000,2000.0000,-216.0000,-95.0000,5.0000,433.0000,-458.0000,9956.0000,-0.2409,-0.5822,0.0849,0.7719,72.2500,-39.2300,-70.7300,2.0500,18.8900,17.1700,0.0000,0.0000,-0.0000,1105.0000,1065.0000,1500.0000,1999.0000
306656.1260,2.0000,1998.0000,1460.0000,2000.0000,-211.0000,-96.0000,5.0000,453.0000,-477.0000,10042.0000,-0.2592,-0.5636,0.0640,0.7818,72.3400,-38.8600,-70.4700,1.7400,19.0600,17.0300,0.0000,0.0000,-0.0000,1105.0000,1065.0000,1500.0000,1999.0000
306672.7380,2.0000,1998.0000,1460.0000,2000.0000,-206.0000,-94.0000,8.0000,543.0000,-447.0000,9689.0000,-0.2772,-0.5450,0.0435,0.7901,72.3400,-38.8600,-70.4700,1.7400,19.0600,17.0300,0.0000,0.0000,-0.0000,1105.0000,1065.0000,1500.0000,1999.0000
306689.5880,2.0000,1998.0000,1254.0000,2000.0000,-202.0000,-96.0000,9.0000,418.0000,-456.0000,9701.0000,-0.2948,-0.5251,0.0237,0.7980,72.4400,-38.3800,-70.2000,1.3300,19.3500,16.8400,0.0000,0.0000,-0.0000,1301.0000,1056.0000,1500.0000,1999.0000
306706.3900,2.0000,1998.0000,1254.0000,2000.0000,-200.0000,-103.0000,11.0000,507.0000,-590.0000,9952.0000,-0.3123,-0.5045,0.0044,0.8049,72.5300,-37.9300,-69.9300,1.0100,19.6200,16.5900,0.0000,0.0000,-0.0000,1301.0000,1056.0000,1500.0000,1999.0000
306722.9630,2.0000,1998.0000,1254.0000,2000.0000,-181.0000,-114.0000,11.0000,189.0000,-433.0000,9496.0000,-0.3286,-0.4831,-0.0129,0.8115,72.6100,-37.5100,-69.6800,0.7400,19.8600,16.3000,0.0000,0.0000,-0.0000,1301.0000,1056.0000,1500.0000,1999.0000
306740.1400,2.0000,1998.0000,1254.0000,2000.0000,-162.0000,-139.0000,6.0000,82.0000,-322.0000,9732.0000,-0.3434,-0.4584,-0.0274,0.8193,72.6700,-37.1100,-69.4400,0.5900,20.0600,15.9600,0.0000,0.0000,-0.0000,1301.0000,1056.0000,1500.0000,1999.0000
306756.7430,2.0000,1998.0000,1254.0000,2000.0000,-143.0000,-153.0000,4.0000,204.0000,-312.0000,10383.0000,-0.3557,-0.4330,-0.0383,0.8273,72.7300,-36.7300,-69.2100,0.4700,20.2600,15.5300,0.0000,0.0000,-0.0000,1301.0000,1056.0000,1500.0000,1999.0000
306773.5570,2.0000,1998.0000,1254.0000,2000.0000,-125.0000,-167.0000,1.0000,280.0000,-330.0000,11427.0000,-0.3667,-0.4061,-0.0468,0.8357,72.7300,-36.7300,-69.2100,0.4700,20.2600,15.5300,0.0000,0.0000,-0.0000,1301.0000,1056.0000,1500.0000,1999.0000
306790.3850,2.0000,1998.0000,1254.0000,2000.0000,-120.0000,-162.0000,2.0000,585.0000,-384.0000,12931.0000,-0.3763,-0.3786,-0.0532,0.8440,72.7900,-36.3600,-68.9900,0.2700,20.4600,15.0100,0.0000,0.0000,-0.0000,1301.0000,1056.0000,1500.0000,1999.0000
306807.2050,2.0000,1998.0000,1463.0000,2000.0000,-112.0000,-158.0000,1.0000,809.0000,-553.0000,14173.0000,-0.3851,-0.3521,-0.0590,0.8510,72.8100,-35.9000,-68.7700,-0.5100,20.7800,14.3600,0.0000,0.0000,-0.0000,1063.0000,1069.0000,1500.0000,1999.0000
306823.9730,2.0000,1998.0000,1506.0000,2000.0000,-105.0000,-157.0000,1.0000,910.0000,-629.0000,14525.0000,-0.3932,-0.3262,-0.0640,0.8573,72.8200,-35.4600,-68.5500,-1.2500,21.1100,13.5600,0.0000,0.0000,-0.0000,1063.0000,1069.0000,1500.0000,1999.0000
306840.6500,2.0000,1998.0000,1506.0000,2000.0000,-101.0000,-150.0000,3.0000,876.0000,-618.0000,14497.0000,-0.4008,-0.3009,-0.0681,0.8626,72.8000,-35.0400,-68.3400,-1.9000,21.4200,12.6900,0.0000,0.0000,-0.0000,1063.0000,1069.0000,1500.0000,1999.0000
306857.3740,2.0000,1998.0000,1506.0000,2000.0000,-112.0000,-134.0000,8.0000,881.0000,-554.0000,14779.0000,-0.4086,-0.2765,-0.0731,0.8667,72.7700,-34.6100,-68.1500,-2.5300,21.7400,11.7600,0.0000,0.0000,-0.0000,1063.0000,1069.0000,1500.0000,1999.0000
306873.9980,2.0000,1998.0000,1506.0000,2000.0000,-134.0000,-114.0000,16.0000,828.0000,-462.0000,14938.0000,-0.4172,-0.2536,-0.0811,0.8689,72.7700,-34.6100,-68.1500,-2.5300,21.7400,11.7600,0.0000,0.0000,-0.0000,1063.0000,1069.0000,1500.0000,1999.0000
306890.6880,2.0000,1998.0000,1493.0000,2000.0000,-153.0000,-86.0000,22.0000,919.0000,-392.0000,14600.0000,-0.4269,-0.2321,-0.0929,0.8690,72.7000,-34.1300,-67.9600,-3.3800,22.2000,10.7800,0.0000,0.0000,-0.0000,1076.0000,1068.0000,1500.0000,1999.0000
306907.5940,2.0000,1998.0000,1492.0000,2000.0000,-169.0000,-59.0000,25.0000,717.0000,-328.0000,13426.0000,-0.4370,-0.2128,-0.1084,0.8672,72.6200,-33.6600,-67.8000,-4.0700,22.6200,9.7800,0.0000,0.0000,-0.0000,1076.0000,1068.0000,1500.0000,1999.0000
306924.1280,2.0000,1998.0000,1492.0000,2000.0000,-181.0000,-43.0000,31.0000,551.0000,-275.0000,11930.0000,-0.4471,-0.1957,-0.1265,0.8636,72.5300,-33.2000,-67.6500,-4.5900,22.9800,8.8500,0.0000,0.0000,-0.0000,1076.0000,1068.0000,1500.0000,1999.0000
306941.2210,2.0000,1998.0000,1492.0000,2000.0000,-202.0000,-35.0000,33.0000,237.0000,-200.0000,10335.0000,-0.4579,-0.1785,-0.1475,0.8583,72.4400,-32.7500,-67.5200,-4.9400,23.2300,8.0500,0.0000,0.0000,-0.0000,1076.0000,1068.0000,1500.0000,1999.0000
306957.8140,2.0000,1998.0000,1492.0000,2000.0000,-218.0000,-47.0000,35.0000,-25.0000,-123.0000,9312.0000,-0.4685,-0.1598,-0.1698,0.8521,72.3300,-32.3000,-67.4200,-5.2600,23.4000,7.3900,0.0000,0.0000,-0.0000,1076.0000,1068.0000,1500.0000,1999.0000
306974.3960,2.0000,1998.0000,1492.0000,2000.0000,-231.0000,-60.0000,35.0000,-103.0000,-17.0000,8821.0000,-0.4790,-0.1387,-0.1930,0.8450,72.3300,-32.3000,-67.4200,-5.2600,23.4000,7.3900,0.0000,0.0000,-0.0000,1076.0000,1068.0000,1500.0000,1999.0000
306991.2730,2.0000,1998.0000,1492.0000,2000.0000,-240.0000,-62.0000,35.0000,53.0000,-116.0000,9136.0000,-0.4894,-0.1152,-0.2173,0.8367,72.1600,-31.7900,-67.3100,-5.9900,23.6700,6.8100,0.0000,0.0000,-0.0000,1076.0000,1068.0000,1500.0000,1999.0000
307008.2440,2.0000,1998.0000,1088.0000,1968.0000,-248.0000,-65.0000,31.0000,-190.0000,147.0000,8404.0000,-0.4994,-0.0908,-0.2421,0.8269,71.9900,-31.2900,-67.2300,-6.6300,23.9000,6.2400,0.0000,0.0000,-0.0000,1471.0000,1060.0000,1500.0000,1999.0000
307025.1210,2.0000,1998.0000,1088.0000,1968.0000,-254.0000,-75.0000,32.0000,99.0000,21.0000,8217.0000,-0.5085,-0.0651,-0.2673,0.8159,71.8000,-30.8100,-67.1500,-7.1400,24.0700,5.7400,0.0000,0.0000,-0.0000,1471.0000,1060.0000,1500.0000,1999.0000
307042.0770,2.0000,1998.0000,1088.0000,1968.0000,-233.0000,-96.0000,27.0000,67.0000,-241.0000,7683.0000,-0.5172,-0.0380,-0.2901,0.8043,71.6200,-30.3600,-67.0900,-7.5600,24.2000,5.3000,0.0000,0.0000,-0.0000,1471.0000,1060.0000,1500.0000,1999.0000
307058.9200,2.0000,1998.0000,1088.0000,1968.0000,-192.0000,-129.0000,20.0000,-401.0000,-152.0000,7316.0000,-0.5252,-0.0098,-0.3067,0.7938,71.4200,-29.9000,-67.0400,-8.0000,24.2700,4.9100,0.0000,0.0000,-0.0000,1471.0000,1060.0000,1500.0000,1999.0000
307075.6190,2.0000,1998.0000,1088.0000,1968.0000,-142.0000,-170.0000,5.0000,-520.0000,-88.0000,7924.0000,-0.5327,0.0193,-0.3139,0.7857,71.4200,-29.9000,-67.0400,-8.0000,24.2700,4.9100,0.0000,0.0000,-0.0000,1471.0000,1060.0000,1500.0000,1999.0000
307092.9430,2.0000,1998.0000,1088.0000,1968.0000,-102.0000,-195.0000,-4.0000,-28.0000,-276.0000,10172.0000,-0.5403,0.0505,-0.3130,0.7794,71.1500,-29.3700,-66.9900,-8.6500,24.3800,4.5400,0.0000,0.0000,-0.0000,1471.0000,1060.0000,1500.0000,1999.0000
307109.9580,2.0000,1998.0000,1509.0000,2000.0000,-74.0000,-194.0000,-10.0000,385.0000,-333.0000,11925.0000,-0.5473,0.0804,-0.3072,0.7744,70.8800,-28.8700,-66.9500,-9.1600,24.5300,4.0000,0.0000,0.0000,-0.0000,1060.0000,1070.0000,1500.0000,1999.0000
307127.0360,2.0000,1998.0000,1510.0000,2000.0000,-60.0000,-189.0000,-13.0000,873.0000,-581.0000,13908.0000,-0.5535,0.1083,-0.2988,0.7698,70.6200,-28.4000,-66.9300,-9.4600,24.7100,3.3000,0.0000,0.0000,-0.0000,1060.0000,1070.0000,1500.0000,1999.0000
307144.1660,2.0000,1998.0000,1510.0000,2000.0000,-72.0000,-165.0000,-8.0000,1156.0000,-713.0000,15165.0000,-0.5588,0.1343,-0.2909,0.7649,70.3700,-27.9400,-66.9200,-9.5500,24.9100,2.4300,0.0000,0.0000,-0.0000,1060.0000,1070.0000,1500.0000,1999.0000
307161.1730,2.0000,1998.0000,1510.0000,2000.0000,-93.0000,-135.0000,4.0000,1402.0000,-971.0000,15951.0000,-0.5631,0.1580,-0.2878,0.7583,70.1200,-27.4700,-66.9200,-9.5100,25.1500,1.4400,0.0000,0.0000,-0.0000,1060.0000,1070.0000,1500.0000,1999.0000
307177.9470,2.0000,1998.0000,1510.0000,2000.0000,-115.0000,-108.0000,17.0000,1272.0000,-982.0000,15492.0000,-0.5668,0.1798,-0.2896,0.7500,70.1200,-27.4700,-66.9200,-9.5100,25.1500,1.4400,0.0000,0.0000,-0.0000,1060.0000,1070.0000,1500.0000,1999.0000
307195.0050,2.0000,1998.0000,1511.0000,2000.0000,-135.0000,-76.0000,31.0000,985.0000,-754.0000,14208.0000,-0.5697,0.1996,-0.2964,0.7401,69.8400,-26.9400,-66.9400,-9.4200,25.4900,0.4500,0.0000,0.0000,-0.0000,1058.0000,1070.0000,1500.0000,1999.0000
307212.0170,2.0000,1998.0000,1512.0000,2000.0000,-151.0000,-56.0000,43.0000,814.0000,-600.0000,12527.0000,-0.5719,0.2171,-0.3080,0.7287,69.5800,-26.4200,-66.9700,-9.2300,25.7100,-0.4100,0.0000,0.0000,-0.0000,1058.0000,1070.0000,1500.0000,1999.0000
307228.7740,2.0000,1998.0000,1512.0000,2000.0000,-159.0000,-50.0000,53.0000,635.0000,-590.0000,11222.0000,-0.5740,0.2337,-0.3213,0.7160,69.3400,-25.9200,-67.0200,-9.0800,25.8200,-1.1100,0.0000,0.0000,-0.0000,1058.0000,1070.0000,1500.0000,1999.0000
307245.3630,2.0000,1998.0000,1512.0000,2000.0000,-169.0000,-44.0000,61.0000,529.0000,-587.0000,10139.0000,-0.5758,0.2490,-0.3366,0.7023,69.1000,-25.4400,-67.0800,-9.0300,25.8300,-1.6400,0.0000,0.0000,-0.0000,1058.0000,1070.0000,1500.0000,1999.0000
307262.2670,2.0000,1998.0000,1512.0000,2000.0000,-181.0000,-56.0000,67.0000,538.0000,-637.0000,9488.0000,-0.5778,0.2655,-0.3527,0.6864,68.8500,-24.9700,-67.1500,-9.0500,25.8200,-2.0600,0.0000,0.0000,-0.0000,1058.0000,1070.0000,1500.0000,1999.0000
307279.1540,2.0000,1998.0000,1512.0000,2000.0000,-190.0000,-64.0000,74.0000,249.0000,-389.0000,8292.0000,-0.5798,0.2829,-0.3695,0.6687,68.8500,-24.9700,-67.1500,-9.0500,25.8200,-2.0600,0.0000,0.0000,-0.0000,1058.0000,1070.0000,1500.0000,1999.0000
307296.0490,2.0000,1998.0000,1512.0000,2000.0000,-204.0000,-69.0000,76.0000,377.0000,-291.0000,7914.0000,-0.5820,0.3020,-0.3862,0.6488,68.5600,-24.4300,-67.2300,-9.1600,25.8700,-2.3500,0.0000,0.0000,-0.0000,1058.0000,1070.0000,1500.0000,1999.0000
307312.8970,2.0000,1998.0000,1512.0000,2000.0000,-214.0000,-79.0000,76.0000,366.0000,-251.0000,7953.0000,-0.5835,0.3222,-0.4032,0.6270,68.2700,-23.9000,-67.3100,-9.3000,25.8600,-2.5500,0.0000,0.0000,-0.0000,1058.0000,1070.0000,1500.0000,1999.0000
307329.6490,2.0000,1998.0000,1512.0000,2000.0000,-222.0000,-80.0000,76.0000,360.0000,-245.0000,8112.0000,-0.5840,0.3429,-0.4201,0.6040,67.9900,-23.4200,-67.4000,-9.4200,25.8000,-2.6900,0.0000,0.0000,-0.0000,1058.0000,1070.0000,1500.0000,1999.0000
307346.2710,2.0000,1998.0000,1512.0000,2000.0000,-224.0000,-91.0000,72.0000,434.0000,-195.0000,8234.0000,-0.5839,0.3645,-0.4358,0.5799,67.7100,-22.9600,-67.4900,-9.5000,25.6900,-2.7800,0.0000,0.0000,-0.0000,1058.0000,1070.0000,1500.0000,1999.0000
307363.0880,2.0000,1998.0000,1512.0000,2000.0000,-230.0000,-100.0000,67.0000,297.0000,-98.0000,8287.0000,-0.5828,0.3868,-0.4508,0.5545,67.4300,-22.4900,-67.5900,-9.4800,25.6100,-2.8200,0.0000,0.0000,-0.0000,1058.0000,1070.0000,1500.0000,1999.0000
307379.9220,2.0000,1998.0000,1512.0000,2000.0000,-233.0000,-97.0000,63.0000,307.0000,37.0000,8409.0000,-0.5804,0.4098,-0.4649,0.5282,67.4300,-22.4900,-67.5900,-9.4800,25.6100,-2.8200,0.0000,0.0000,-0.0000,1058.0000,1070.0000,1500.0000,1999.0000
307396.6600,2.0000,1998.0000,1512.0000,2000.0000,-232.0000,-95.0000,54.0000,398.0000,151.0000,8490.0000,-0.5768,0.4323,-0.4781,0.5018,67.1200,-21.9300,-67.7000,-9.2300,25.6300,-2.7900,0.0000,0.0000,-0.0000,1058.0000,1070.0000,1500.0000,1999.0000
307413.3890,2.0000,1998.0000,1512.0000,2000.0000,-237.0000,-97.0000,46.0000,441.0000,211.0000,8592.0000,-0.5716,0.4550,-0.4903,0.4753,66.8200,-21.4100,-67.8000,-9.0000,25.5900,-2.6900,0.0000,0.0000,-0.0000,1058.0000,1070.0000,1500.0000,1999.0000
307430.4790,2.0000,1998.0000,1512.0000,2000.0000,-241.0000,-94.0000,36.0000,648.0000,49.0000,9205.0000,-0.5645,0.4786,-0.5018,0.4478,66.5500,-20.9300,-67.9000,-8.7600,25.4900,-2.5300,0.0000,0.0000,-0.0000,1058.0000,1070.0000,1500.0000,1999.0000
307447.3040,2.0000,1998.0000,1512.0000,2000.0000,-245.0000,-91.0000,29.0000,686.0000,-85.0000,9235.0000,-0.5556,0.5018,-0.5122,0.4208,66.3000,-20.4800,-67.9900,-8.4800,25.3600,-2.3200,0.0000,0.0000,-0.0000,1058.0000,1070.0000,1500.0000,1999.0000
307464.0660,2.0000,1998.0000,1512.0000,2000.0000,-242.0000,-87.0000,26.0000,629.0000,-167.0000,8874.0000,-0.5454,0.5245,-0.5219,0.3938,66.0600,-20.0000,-68.0800,-8.0300,25.2500,-2.0500,0.0000,0.0000,-0.0000,1058.0000,1070.0000,1500.0000,1999.0000
307481.0300,2.0000,1998.0000,1512.0000,2000.0000,-235.0000,-91.0000,24.0000,523.0000,-322.0000,8696.0000,-0.5350,0.5467,-0.5300,0.3661,66.0600,-20.0000,-68.0800,-8.0300,25.2500,-2.0500,0.0000,0.0000,-0.0000,1058.0000,1070.0000,1500.0000,1999.0000
307498.0530,2.0000,1998.0000,1512.0000,2000.0000,-234.0000,-88.0000,24.0000,337.0000,-140.0000,7798.0000,-0.5239,0.5677,-0.5373,0.3384,65.8200,-19.4500,-68.1600,-7.2600,25.2200,-1.7400,0.0000,0.0000,-0.0000,1058.0000,1070.0000,1500.0000,1999.0000
307514.8520,2.0000,1998.0000,1512.0000,2000.0000,-236.0000,-86.0000,28.0000,206.0000,16.0000,7152.0000,-0.5119,0.5875,-0.5443,0.3107,65.6100,-18.9400,-68.2300,-6.6700,25.1300,-1.3700,0.0000,0.0000,-0.0000,1058.0000,1070.0000,1500.0000,1999.0000
307531.6850,2.0000,1998.0000,1512.0000,2000.0000,-241.0000,-90.0000,30.0000,237.0000,32.0000,6825.0000,-0.4994,0.6066,-0.5507,0.2817,65.4200,-18.4600,-68.3000,-6.2300,24.9900,-0.9500,0.0000,0.0000,-0.0000,1058.0000,1070.0000,1500.0000,1999.0000
307548.4680,2.0000,1998.0000,1512.0000,2000.0000,-240.0000,-96.0000,34.0000,522.0000,-227.0000,7361.0000,-0.4862,0.6247,-0.5567,0.2518,65.2500,-18.0100,-68.3500,-5.8600,24.8300,-0.4900,0.0000,0.0000,-0.0000,1058.0000,1070.0000,1500.0000,1999.0000
307565.1550,2.0000,1998.0000,1512.0000,2000.0000,-235.0000,-93.0000,37.0000,621.0000,-232.0000,7308.0000,-0.4733,0.6417,-0.5615,0.2213,65.2500,-18.0100,-68.3500,-5.8600,24.8300,-0.4900,0.0000,0.0000,-0.0000,1058.0000,1070.0000,1500.0000,1999.0000
307581.9760,2.0000,1998.0000,1512.0000,2000.0000,-232.0000,-100.0000,40.0000,796.0000,-500.0000,7994.0000,-0.4602,0.6575,-0.5655,0.1902,65.0900,-17.5300,-68.3900,-5.2900,24.6600,-0.0000,0.0000,0.0000,-0.0000,1058.0000,1070.0000,1500.0000,1999.0000
307598.9400,2.0000,1998.0000,1512.0000,2000.0000,-223.0000,-104.0000,42.0000,580.0000,-374.0000,7744.0000,-0.4473,0.6718,-0.5687,0.1585,64.9500,-16.9900,-68.4200,-4.4100,24.4900,0.5700,0.0000,0.0000,-0.0000,1058.0000,1070.0000,1500.0000,1999.0000
307615.6530,2.0000,1998.0000,1512.0000,2000.0000,-221.0000,-107.0000,41.0000,348.0000,-185.0000,7297.0000,-0.4350,0.6849,-0.5706,0.1269,64.8400,-16.4900,-68.4300,-3.6800,24.2700,1.1700,0.0000,0.0000,-0.0000,1058.0000,1070.0000,1500.0000,1999.0000
307632.3450,2.0000,1998.0000,1512.0000,2000.0000,-221.0000,-110.0000,41.0000,545.0000,-351.0000,7644.0000,-0.4224,0.6969,-0.5717,0.0952,64.7500,-16.0300,-68.4400,-3.1100,24.0200,1.7900,0.0000,0.0000,-0.0000,1058.0000,1070.0000,1500.0000,1999.0000
307649.1340,2.0000,1998.0000,1512.0000,2000.0000,-223.0000,-106.0000,41.0000,661.0000,-443.0000,7932.0000,-0.4091,0.7082,-0.5719,0.0630,64.6700,-15.6000,-68.4300,-2.6100,23.7500,2.4400,0.0000,0.0000,-0.0000,1058.0000,1070.0000,1500.0000,1999.0000
307666.0100,2.0000,1998.0000,1512.0000,2000.0000,-224.0000,-110.0000,41.0000,568.0000,-388.0000,7834.0000,-0.3950,0.7188,-0.5713,0.0302,64.6700,-15.6000,-68.4300,-2.6100,23.7500,2.4400,0.0000,0.0000,-0.0000,1058.0000,1070.0000,1500.0000,1999.0000
307683.1130,2.0000,1998.0000,1512.0000,2000.0000,-224.0000,-113.0000,42.0000,495.0000,-335.0000,7718.0000,-0.3803,0.7286,-0.5697,-0.0032,64.6100,-15.1400,-68.4000,-2.0000,23.5100,3.1300,0.0000,0.0000,-0.0000,1058.0000,1070.0000,1500.0000,1999.0000
307700.3070,2.0000,1998.0000,1512.0000,2000.0000,-228.0000,-115.0000,44.0000,753.0000,-363.0000,7845.0000,-0.3650,0.7374,-0.5671,-0.0376,64.5800,-14.6200,-68.3500,-1.2400,23.3100,3.8600,0.0000,0.0000,-0.0000,1058.0000,1070.0000,1500.0000,1999.0000
307716.8700,2.0000,1998.0000,1512.0000,2000.0000,-229.0000,-119.0000,44.0000,583.0000,-397.0000,8022.0000,-0.3496,0.7448,-0.5639,-0.0712,64.5600,-14.1400,-68.2800,-0.6300,23.0900,4.6200,0.0000,0.0000,-0.0000,1058.0000,1070.0000,1500.0000,1999.0000
307733.4670,2.0000,1998.0000,1512.0000,2000.0000,-227.0000,-112.0000,46.0000,663.0000,-412.0000,8405.0000,-0.3337,0.7510,-0.5601,-0.1045,64.5500,-13.6900,-68.2000,-0.1500,22.8200,5.4100,0.0000,0.0000,-0.0000,1058.0000,1070.0000,1500.0000,1999.0000
307750.1530,2.0000,1998.0000,1512.0000,2000.0000,-224.0000,-113.0000,45.0000,622.0000,-396.0000,8667.0000,-0.3171,0.7563,-0.5556,-0.1374,64.5500,-13.2800,-68.1100,0.2100,22.5200,6.2300,0.0000,0.0000,-0.0000,1058.0000,1070.0000,1500.0000,1999.0000
307766.9460,2.0000,1998.0000,1512.0000,2000.0000,-225.0000,-115.0000,44.0000,549.0000,-188.0000,8387.0000,-0.3005,0.7604,-0.5500,-0.1702,64.5500,-13.2800,-68.1100,0.2100,22.5200,6.2300,0.0000,0.0000,-0.0000,1058.0000,1070.0000,1500.0000,1999.0000
307783.7420,2.0000,1998.0000,1512.0000,2000.0000,-225.0000,-106.0000,43.0000,786.0000,-283.0000,8813.0000,-0.2830,0.7638,-0.5436,-0.2027,64.5600,-12.8300,-68.0000,0.5300,22.3100,7.0400,0.0000,0.0000,-0.0000,1058.0000,1070.0000,1500.0000,1999.0000
307800.7310,2.0000,1998.0000,1512.0000,2000.0000,-227.0000,-111.0000,37.0000,655.0000,-174.0000,8695.0000,-0.2644,0.7665,-0.5362,-0.2347,64.5900,-12.3300,-67.8700,0.8400,22.1500,7.8600,0.0000,0.0000,-0.0000,1058.0000,1070.0000,1500.0000,1999.0000
307817.5640,2.0000,1998.0000,1512.0000,2000.0000,-227.0000,-110.0000,29.0000,305.0000,30.0000,8409.0000,-0.2461,0.7685,-0.5273,-0.2661,64.6300,-11.8500,-67.7200,1.0400,21.9700,8.6900,0.0000,0.0000,-0.0000,1058.0000,1070.0000,1500.0000,1999.0000
307834.4930,2.0000,1998.0000,1484.0000,2000.0000,-228.0000,-102.0000,24.0000,527.0000,-7.0000,8641.0000,-0.2274,0.7700,-0.5170,-0.2967,64.6600,-11.4200,-67.5700,1.1100,21.7900,9.4500,0.0000,0.0000,-0.0000,1083.0000,1067.0000,1500.0000,1999.0000
307851.2350,2.0000,1998.0000,1484.0000,2000.0000,-227.0000,-105.0000,18.0000,467.0000,68.0000,8257.0000,-0.2083,0.7712,-0.5054,-0.3261,64.6900,-11.0200,-67.4000,1.1100,21.6100,10.2100,0.0000,0.0000,-0.0000,1083.0000,1067.0000,1500.0000,1999.0000
307868.2650,2.0000,1998.0000,1484.0000,2000.0000,-222.0000,-104.0000,13.0000,388.0000,-16.0000,8236.0000,-0.1892,0.7717,-0.4925,-0.3551,64.6900,-11.0200,-67.4000,1.1100,21.6100,10.2100,0.0000,0.0000,-0.0000,1083.0000,1067.0000,1500.0000,1999.0000
307885.0100,2.0000,1998.0000,1484.0000,2000.0000,-217.0000,-105.0000,10.0000,348.0000,-47.0000,8185.0000,-0.1712,0.7713,-0.4788,-0.3828,64.7300,-10.5600,-67.2100,1.1500,21.4700,10.9200,0.0000,0.0000,-0.0000,1083.0000,1067.0000,1500.0000,1999.0000
307902.0710,2.0000,1998.0000,1484.0000,2000.0000,-215.0000,-107.0000,7.0000,690.0000,-398.0000,9028.0000,-0.1533,0.7698,-0.4642,-0.4105,64.7800,-10.0700,-67.0000,1.2100,21.3400,11.5900,0.0000,0.0000,-0.0000,1083.0000,1067.0000,1500.0000,1999.0000
307919.1600,2.0000,1998.0000,1484.0000,2000.0000,-216.0000,-106.0000,7.0000,519.0000,-344.0000,8943.0000,-0.1353,0.7673,-0.4489,-0.4375,64.8300,-9.6100,-66.7900,1.2100,21.1600,12.3100,0.0000,0.0000,-0.0000,1083.0000,1067.0000,1500.0000,1999.0000
307935.9850,2.0000,1998.0000,1263.0000,2000.0000,-213.0000,-107.0000,6.0000,226.0000,-166.0000,8340.0000,-0.1173,0.7641,-0.4329,-0.4637,64.8800,-9.1900,-66.5700,1.1400,20.9900,12.9600,0.0000,0.0000,-0.0000,1293.0000,1057.0000,1500.0000,1999.0000
307952.7160,2.0000,1998.0000,1263.0000,2000.0000,-206.0000,-114.0000,4.0000,164.0000,-109.0000,7650.0000,-0.0998,0.7598,-0.4167,-0.4890,64.9200,-8.7900,-66.3500,1.0500,20.8600,13.5200,0.0000,0.0000,-0.0000,1293.0000,1057.0000,1500.0000,1999.0000
307969.7150,2.0000,1998.0000,1263.0000,2000.0000,-178.0000,-126.0000,3.0000,233.0000,-312.0000,7776.0000,-0.0851,0.7533,-0.4008,-0.5144,64.9200,-8.7900,-66.3500,1.0500,20.8600,13.5200,0.0000,0.0000,-0.0000,1293.0000,1057.0000,1500.0000,1999.0000
307986.3810,2.0000,1998.0000,1263.0000,2000.0000,-157.0000,-147.0000,-3.0000,360.0000,-320.0000,8281.0000,-0.0746,0.7450,-0.3860,-0.5389,64.9700,-8.3500,-66.1100,0.9600,20.7600,14.0100,0.0000,0.0000,-0.0000,1293.0000,1057.0000,1500.0000,1999.0000
308003.1960,2.0000,1998.0000,1263.0000,2000.0000,-145.0000,-162.0000,-6.0000,340.0000,-297.0000,9011.0000,-0.0668,0.7347,-0.3713,-0.5638,65.0200,-7.8700,-65.8500,0.8200,20.6100,14.5100,0.0000,0.0000,-0.0000,1293.0000,1057.0000,1500.0000,1999.0000
308019.9820,2.0000,1998.0000,1155.0000,2000.0000,-131.0000,-171.0000,-7.0000,337.0000,-347.0000,9787.0000,-0.0613,0.7221,-0.3568,-0.5894,65.0600,-7.4200,-65.5800,0.6100,20.4200,14.9800,0.0000,0.0000,-0.0000,1453.0000,1060.0000,1500.0000,1999.0000
308036.7070,2.0000,1998.0000,1106.0000,1986.0000,-119.0000,-177.0000,-9.0000,487.0000,-473.0000,10949.0000,-0.0575,0.7085,-0.3429,-0.6141,65.1000,-7.0100,-65.3200,0.3200,20.1900,15.4200,0.0000,0.0000,-0.0000,1453.0000,1060.0000,1500.0000,1999.0000
308053.3430,2.0000,1998.0000,1106.0000,1986.0000,-103.0000,-181.0000,-10.0000,672.0000,-684.0000,11919.0000,-0.0552,0.6938,-0.3298,-0.6378,65.1300,-6.6300,-65.0600,-0.0500,19.8900,15.8400,0.0000,0.0000,-0.0000,1453.0000,1060.0000,1500.0000,1999.0000
308070.2640,2.0000,1998.0000,1106.0000,1986.0000,-84.0000,-186.0000,-11.0000,647.0000,-718.0000,12497.0000,-0.0551,0.6776,-0.3177,-0.6610,65.1300,-6.6300,-65.0600,-0.0500,19.8900,15.8400,0.0000,0.0000,-0.0000,1453.0000,1060.0000,1500.0000,1999.0000
308087.5730,2.0000,1998.0000,1106.0000,1986.0000,-72.0000,-187.0000,-10.0000,741.0000,-664.0000,12859.0000,-0.0562,0.6603,-0.3064,-0.6834,65.1600,-6.2000,-64.7900,-0.4800,19.5400,16.2300,0.0000,0.0000,-0.0000,1453.0000,1060.0000,1500.0000,1999.0000
308104.2810,2.0000,1998.0000,1106.0000,1986.0000,-64.0000,-179.0000,-9.0000,935.0000,-694.0000,13433.0000,-0.0577,0.6432,-0.2960,-0.7038,65.1900,-5.7500,-64.5000,-0.9000,19.1900,16.5300,0.0000,0.0000,-0.0000,1453.0000,1060.0000,1500.0000,1999.0000
308120.9740,2.0000,1998.0000,1106.0000,1986.0000,-57.0000,-170.0000,-9.0000,969.0000,-508.0000,13590.0000,-0.0594,0.6264,-0.2865,-0.7225,65.2100,-5.3400,-64.2200,-1.3800,18.8100,16.7700,0.0000,0.0000,-0.0000,1453.0000,1060.0000,1500.0000,1999.0000
308138.1070,2.0000,1998.0000,1074.0000,1954.0000,-54.0000,-166.0000,-7.0000,878.0000,-418.0000,13753.0000,-0.0609,0.6096,-0.2772,-0.7402,65.2100,-4.9600,-63.9400,-1.9100,18.4200,16.9300,0.0000,0.0000,-0.0000,1485.0000,1060.0000,1500.0000,1999.0000
308154.9890,2.0000,1998.0000,1074.0000,1954.0000,-57.0000,-151.0000,-5.0000,997.0000,-544.0000,14021.0000,-0.0618,0.5932,-0.2680,-0.7566,65.1900,-4.6100,-63.6500,-2.4800,18.0200,16.9900,0.0000,0.0000,-0.0000,1485.0000,1060.0000,1500.0000,1999.0000
308171.8210,2.0000,1998.0000,1074.0000,1954.0000,-55.0000,-147.0000,-5.0000,797.0000,-427.0000,13484.0000,-0.0621,0.5775,-0.2587,-0.7719,65.1900,-4.6100,-63.6500,-2.4800,18.0200,16.9900,0.0000,0.0000,-0.0000,1485.0000,1060.0000,1500.0000,1999.0000
308189.1330,2.0000,1998.0000,1074.0000,1954.0000,-56.0000,-144.0000,-7.0000,842.0000,-513.0000,13304.0000,-0.0623,0.5614,-0.2495,-0.7866,65.1700,-4.2300,-63.3500,-3.1000,17.6600,17.0000,0.0000,0.0000,-0.0000,1485.0000,1060.0000,1500.0000,1999.0000
308206.0600,2.0000,1998.0000,1074.0000,1954.0000,-54.0000,-146.0000,-6.0000,825.0000,-455.0000,13190.0000,-0.0623,0.5455,-0.2402,-0.8005,65.1400,-3.8300,-63.0500,-3.7100,17.3500,16.9300,0.0000,0.0000,-0.0000,1485.0000,1060.0000,1500.0000,1999.0000
308223.3270,2.0000,1998.0000,1073.0000,1953.0000,-50.0000,-144.0000,-8.0000,900.0000,-509.0000,13327.0000,-0.0627,0.5288,-0.2307,-0.8143,65.0900,-3.4600,-62.7500,-4.2500,17.0600,16.8100,0.0000,0.0000,-0.0000,1486.0000,1060.0000,1500.0000,1999.0000
308239.9390,2.0000,1998.0000,1073.0000,1953.0000,-47.0000,-142.0000,-9.0000,694.0000,-407.0000,12757.0000,-0.0637,0.5128,-0.2223,-0.8267,65.0400,-3.1200,-62.4700,-4.7600,16.7900,16.6200,0.0000,0.0000,-0.0000,1486.0000,1060.0000,1500.0000,1999.0000
308256.7150,2.0000,1998.0000,1073.0000,1953.0000,-42.0000,-144.0000,-10.0000,701.0000,-333.0000,12674.0000,-0.0647,0.4966,-0.2141,-0.8387,64.9700,-2.7800,-62.1800,-5.1900,16.5400,16.3600,0.0000,0.0000,-0.0000,1486.0000,1060.0000,1500.0000,1999.0000
308273.5870,2.0000,1998.0000,1073.0000,1953.0000,-43.0000,-149.0000,-11.0000,650.0000,-451.0000,12676.0000,-0.0662,0.4794,-0.2058,-0.8505,64.9700,-2.7800,-62.1800,-5.1900,16.5400,16.3600,0.0000,0.0000,-0.0000,1486.0000,1060.0000,1500.0000,1999.0000
308290.3170,2.0000,1998.0000,1073.0000,1953.0000,-41.0000,-147.0000,-9.0000,800.0000,-581.0000,13319.0000,-0.0676,0.4617,-0.1975,-0.8621,64.9000,-2.4300,-61.9000,-5.6100,16.3200,16.0500,0.0000,0.0000,-0.0000,1486.0000,1060.0000,1500.0000,1999.0000
308307.0120,2.0000,1998.0000,1073.0000,1953.0000,-45.0000,-146.0000,-9.0000,809.0000,-555.0000,13689.0000,-0.0687,0.4442,-0.1893,-0.8730,64.8300,-2.0500,-61.6200,-6.0500,16.0600,15.6800,0.0000,0.0000,-0.0000,1486.0000,1060.0000,1500.0000,1999.0000
308323.6800,2.0000,1998.0000,1073.0000,1953.0000,-46.0000,-148.0000,-10.0000,908.0000,-634.0000,13939.0000,-0.0695,0.4264,-0.1806,-0.8836,64.7400,-1.7100,-61.3500,-6.4800,15.7900,15.2200,0.0000,0.0000,-0.0000,1486.0000,1060.0000,1500.0000,1999.0000
308340.4640,2.0000,1998.0000,1073.0000,1953.0000,-39.0000,-146.0000,-12.0000,750.0000,-613.0000,13548.0000,-0.0709,0.4081,-0.1724,-0.8937,64.6600,-1.3700,-61.1000,-6.8800,15.5300,14.6900,0.0000,0.0000,-0.0000,1486.0000,1060.0000,1500.0000,1999.0000
308357.2030,2.0000,1998.0000,1073.0000,1953.0000,-38.0000,-152.0000,-11.0000,815.0000,-704.0000,13336.0000,-0.0725,0.3895,-0.1645,-0.9033,64.5600,-1.0600,-60.8600,-7.1900,15.3100,14.1100,0.0000,0.0000,-0.0000,1486.0000,1060.0000,1500.0000,1999.0000
308373.9590,2.0000,1998.0000,1073.0000,1953.0000,-40.0000,-155.0000,-10.0000,729.0000,-657.0000,13228.0000,-0.0741,0.3699,-0.1565,-0.9128,64.5600,-1.0600,-60.8600,-7.1900,15.3100,14.1100,0.0000,0.0000,-0.0000,1486.0000,1060.0000,1500.0000,1999.0000
308391.2150,2.0000,1998.0000,1073.0000,1953.0000,-44.0000,-153.0000,-9.0000,664.0000,-564.0000,13432.0000,-0.0752,0.3495,-0.1479,-0.9221,64.4500,-0.7200,-60.6200,-7.7000,14.9800,13.4900,0.0000,0.0000,-0.0000,1486.0000,1060.0000,1500.0000,1999.0000
308408.1250,2.0000,1998.0000,1073.0000,1953.0000,-38.0000,-150.0000,-8.0000,748.0000,-545.0000,13694.0000,-0.0762,0.3295,-0.1396,-0.9307,64.3200,-0.3900,-60.4000,-8.2600,14.6300,12.8100,0.0000,0.0000,-0.0000,1486.0000,1060.0000,1500.0000,1999.0000
308425.0440,2.0000,1998.0000,1073.0000,1953.0000,-37.0000,-150.0000,-8.0000,803.0000,-480.0000,13620.0000,-0.0771,0.3097,-0.1319,-0.9385,64.1800,-0.0700,-60.2000,-8.7600,14.3000,12.0700,0.0000,0.0000,-0.0000,1486.0000,1060.0000,1500.0000,1999.0000
308441.8900,2.0000,1998.0000,1073.0000,1953.0000,-39.0000,-152.0000,-8.0000,859.0000,-545.0000,13625.0000,-0.0779,0.2896,-0.1241,-0.9459,64.0500,0.2100,-60.0200,-9.1800,14.0100,11.2700,0.0000,0.0000,-0.0000,1486.0000,1060.0000,1500.0000,1999.0000
308458.7840,2.0000,1998.0000,1073.0000,1953.0000,-41.0000,-148.0000,-8.0000,761.0000,-519.0000,13797.0000,-0.0787,0.2693,-0.1159,-0.9528,63.9000,0.4900,-59.8700,-9.5200,13.7500,10.4400,0.0000,0.0000,-0.0000,1486.0000,1060.0000,1500.0000,1999.0000
308475.6720,2.0000,1998.0000,1073.0000,1953.0000,-46.0000,-141.0000,-8.0000,641.0000,-397.0000,13560.0000,-0.0797,0.2497,-0.1072,-0.9591,63.9000,0.4900,-59.8700,-9.5200,13.7500,10.4400,0.0000,0.0000,-0.0000,1486.0000,1060.0000,1500.0000,1999.0000
308492.8110,2.0000,1998.0000,1073.0000,1953.0000,-42.0000,-135.0000,-9.0000,553.0000,-249.0000,13042.0000,-0.0807,0.2309,-0.0986,-0.9646,63.7300,0.7900,-59.7200,-10.0900,13.3700,9.5500,0.0000,0.0000,-0.0000,1486.0000,1060.0000,1500.0000,1999.0000
308509.6800,2.0000,1998.0000,1073.0000,1953.0000,-33.0000,-131.0000,-11.0000,881.0000,-561.0000,13416.0000,-0.0819,0.2126,-0.0911,-0.9694,63.5300,1.0700,-59.5800,-10.6600,13.0000,8.6600,0.0000,0.0000,-0.0000,1486.0000,1060.0000,1500.0000,1999.0000
308526.3840,2.0000,1998.0000,1073.0000,1953.0000,-30.0000,-127.0000,-13.0000,863.0000,-555.0000,13135.0000,-0.0836,0.1950,-0.0847,-0.9735,63.3300,1.3500,-59.4700,-11.1700,12.6300,7.7300,0.0000,0.0000,-0.0000,1486.0000,1060.0000,1500.0000,1999.0000
308543.1050,2.0000,1998.0000,1073.0000,1953.0000,-36.0000,-129.0000,-12.0000,639.0000,-339.0000,12409.0000,-0.0853,0.1774,-0.0781,-0.9773,63.1300,1.6100,-59.3800,-11.5800,12.3100,6.8000,0.0000,0.0000,-0.0000,1486.0000,1060.0000,1500.0000,1999.0000
308559.7370,2.0000,1998.0000,1073.0000,1953.0000,-45.0000,-132.0000,-14.0000,653.0000,-381.0000,12344.0000,-0.0869,0.1595,-0.0704,-0.9808,62.9300,1.8500,-59.3100,-11.8600,12.0500,5.9100,0.0000,0.0000,-0.0000,1486.0000,1060.0000,1500.0000,1999.0000
308576.5670,2.0000,1998.0000,1073.0000,1953.0000,-50.0000,-132.0000,-13.0000,689.0000,-352.0000,12367.0000,-0.0892,0.1411,-0.0617,-0.9840,62.9300,1.8500,-59.3100,-11.8600,12.0500,5.9100,0.0000,0.0000,-0.0000,1486.0000,1060.0000,1500.0000,1999.0000
308593.8310,2.0000,1998.0000,1073.0000,1953.0000,-45.0000,-136.0000,-15.0000,680.0000,-406.0000,12257.0000,-0.0917,0.1219,-0.0525,-0.9869,62.6800,2.0900,-59.2400,-12.4300,11.5900,5.0100,0.0000,0.0000,-0.0000,1486.0000,1060.0000,1500.0000,1999.0000
308610.6930,2.0000,1998.0000,1073.0000,1953.0000,-39.0000,-137.0000,-13.0000,684.0000,-480.0000,12263.0000,-0.0942,0.1027,-0.0443,-0.9892,62.4100,2.3200,-59.1900,-13.0200,11.1000,4.0900,0.0000,0.0000,-0.0000,1486.0000,1060.0000,1500.0000,1999.0000
308627.5730,2.0000,1998.0000,1073.0000,1953.0000,-31.0000,-133.0000,-11.0000,713.0000,-586.0000,12211.0000,-0.0965,0.0835,-0.0370,-0.9911,62.1300,2.5400,-59.1600,-13.5100,10.6400,3.1500,0.0000,0.0000,-0.0000,1486.0000,1060.0000,1500.0000,1999.0000
308644.5550,2.0000,1998.0000,1073.0000,1953.0000,-32.0000,-138.0000,-8.0000,794.0000,-655.0000,12222.0000,-0.0984,0.0640,-0.0304,-0.9926,61.8600,2.7300,-59.1500,-13.9000,10.2300,2.2000,0.0000,0.0000,-0.0000,1486.0000,1060.0000,1500.0000,1999.0000
308661.3460,2.0000,1998.0000,1072.0000,1952.0000,-27.0000,-141.0000,-4.0000,844.0000,-715.0000,12528.0000,-0.0998,0.0443,-0.0239,-0.9937,61.5900,2.9100,-59.1600,-14.2100,9.8600,1.2500,0.0000,0.0000,-0.0000,1487.0000,1060.0000,1500.0000,1999.0000
308678.1730,2.0000,1998.0000,1072.0000,1952.0000,-30.0000,-135.0000,3.0000,817.0000,-597.0000,12841.0000,-0.1008,0.0244,-0.0176,-0.9945,61.5900,2.9100,-59.1600,-14.2100,9.8600,1.2500,0.0000,0.0000,-0.0000,1487.0000,1060.0000,1500.0000,1999.0000
308695.2200,2.0000,1998.0000,1072.0000,1952.0000,-31.0000,-132.0000,6.0000,970.0000,-642.0000,13459.0000,-0.1011,0.0047,-0.0109,-0.9948,61.2600,3.0900,-59.1800,-14.7300,9.3300,0.2600,0.0000,0.0000,-0.0000,1487.0000,1060.0000,1500.0000,1999.0000
308712.2440,2.0000,1998.0000,1072.0000,1952.0000,-29.0000,-119.0000,5.0000,890.0000,-584.0000,13582.0000,-0.1011,-0.0135,-0.0047,-0.9948,60.9200,3.2500,-59.2200,-15.2100,8.8300,-0.7800,0.0000,0.0000,-0.0000,1487.0000,1060.0000,1500.0000,1999.0000
308729.0770,2.0000,1998.0000,1072.0000,1952.0000,-36.0000,-102.0000,4.0000,811.0000,-573.0000,13450.0000,-0.1013,-0.0292,0.0019,-0.9944,60.5900,3.4000,-59.2800,-15.6000,8.3900,-1.8500,0.0000,0.0000,-0.0000,1487.0000,1060.0000,1500.0000,1999.0000
308746.0230,2.0000,1998.0000,1059.0000,1937.0000,-35.0000,-85.0000,1.0000,728.0000,-561.0000,12452.0000,-0.1018,-0.0425,0.0089,-0.9939,60.2500,3.5300,-59.3700,-15.9000,7.9900,-2.9000,0.0000,0.0000,-0.0000,1505.0000,1061.0000,1500.0000,1999.0000
308762.8010,2.0000,1998.0000,1058.0000,1936.0000,-34.0000,-91.0000,-2.0000,767.0000,-566.0000,11845.0000,-0.1027,-0.0546,0.0149,-0.9931,59.9300,3.6500,-59.4800,-16.1600,7.6100,-3.8200,0.0000,0.0000,-0.0000,1505.0000,1061.0000,1500.0000,1999.0000
308779.6190,2.0000,1998.0000,1058.0000,1936.0000,-33.0000,-87.0000,-7.0000,726.0000,-364.0000,11322.0000,-0.1044,-0.0675,0.0213,-0.9920,59.9300,3.6500,-59.4800,-16.1600,7.6100,-3.8200,0.0000,0.0000,-0.0000,1505.0000,1061.0000,1500.0000,1999.0000
308796.7290,2.0000,1998.0000,1058.0000,1936.0000,-33.0000,-95.0000,-9.0000,709.0000,-431.0000,11204.0000,-0.1065,-0.0803,0.0275,-0.9907,59.5200,3.7500,-59.6000,-16.6900,7.0500,-4.7000,0.0000,0.0000,-0.0000,1505.0000,1061.0000,1500.0000,1999.0000
308813.5360,2.0000,1998.0000,1058.0000,1936.0000,-19.0000,-102.0000,-8.0000,725.0000,-590.0000,11101.0000,-0.1084,-0.0939,0.0325,-0.9891,59.0900,3.8400,-59.7400,-17.2300,6.5100,-5.5200,0.0000,0.0000,-0.0000,1505.0000,1061.0000,1500.0000,1999.0000
308830.5620,2.0000,1998.0000,1058.0000,1936.0000,-21.0000,-106.0000,-3.0000,831.0000,-830.0000,11090.0000,-0.1097,-0.1090,0.0366,-0.9873,58.6800,3.9100,-59.8900,-17.6700,6.0200,-6.3200,0.0000,0.0000,-0.0000,1505.0000,1061.0000,1500.0000,1999.0000
308847.2560,2.0000,1998.0000,1058.0000,1936.0000,-27.0000,-110.0000,5.0000,940.0000,-889.0000,10994.0000,-0.1103,-0.1239,0.0420,-0.9853,58.2700,3.9600,-60.0700,-18.0400,5.5200,-7.1200,0.0000,0.0000,-0.0000,1505.0000,1061.0000,1500.0000,1999.0000
308864.0260,2.0000,1997.0000,1000.0000,1541.0000,-20.0000,-130.0000,7.0000,948.0000,-927.0000,11019.0000,-0.1100,-0.1414,0.0475,-0.9827,57.8700,4.0000,-60.2600,-18.3700,5.0400,-7.9000,0.0000,0.0000,-0.0000,1899.0000,1062.0000,1500.0000,1998.0000
308880.5580,2.0000,1997.0000,1000.0000,1540.0000,-13.0000,-133.0000,11.0000,1058.0000,-845.0000,10943.0000,-0.1092,-0.1596,0.0521,-0.9797,57.8700,4.0000,-60.2600,-18.3700,5.0400,-7.9000,0.0000,0.0000,-0.0000,1899.0000,1062.0000,1500.0000,1998.0000
308897.7170,2.0000,1997.0000,1000.0000,1540.0000,10.0000,-142.0000,10.0000,1236.0000,-841.0000,11352.0000,-0.1076,-0.1792,0.0552,-0.9763,57.3500,4.0300,-60.4800,-18.9700,4.4200,-8.6700,0.0000,0.0000,-0.0000,1899.0000,1062.0000,1500.0000,1998.0000
308914.4840,2.0000,1997.0000,1000.0000,1540.0000,36.0000,-131.0000,7.0000,1094.0000,-653.0000,11505.0000,-0.1055,-0.1992,0.0546,-0.9727,56.8300,4.0300,-60.7200,-19.5000,3.8500,-9.4300,0.0000,0.0000,-0.0000,1899.0000,1062.0000,1500.0000,1998.0000
308931.1510,2.0000,1997.0000,1000.0000,1540.0000,61.0000,-126.0000,2.0000,1268.0000,-717.0000,12276.0000,-0.1034,-0.2176,0.0499,-0.9693,56.3200,4.0300,-60.9700,-19.8900,3.3700,-10.2100,0.0000,0.0000,-0.0000,1899.0000,1062.0000,1500.0000,1998.0000
308947.8860,2.0000,1997.0000,1000.0000,1540.0000,69.0000,-113.0000,-3.0000,1135.0000,-627.0000,11917.0000,-0.1014,-0.2355,0.0422,-0.9657,55.8500,4.0200,-61.2300,-20.1300,2.9500,-11.0300,0.0000,0.0000,-0.0000,1899.0000,1062.0000,1500.0000,1998.0000
308964.6550,2.0000,1998.0000,1068.0000,1948.0000,76.0000,-98.0000,-7.0000,982.0000,-441.0000,10936.0000,-0.0999,-0.2514,0.0337,-0.9621,55.4000,4.0000,-61.5000,-20.2700,2.5700,-11.7800,0.0000,0.0000,-0.0000,1490.0000,1060.0000,1500.0000,1999.0000
308981.4650,2.0000,1998.0000,1069.0000,1949.0000,86.0000,-103.0000,-10.0000,932.0000,-480.0000,10013.0000,-0.0986,-0.2665,0.0237,-0.9585,55.4000,4.0000,-61.5000,-20.2700,2.5700,-11.7800,0.0000,0.0000,-0.0000,1490.0000,1060.0000,1500.0000,1999.0000
308998.4450,2.0000,1998.0000,1069.0000,1949.0000,83.0000,-113.0000,-12.0000,891.0000,-412.0000,8962.0000,-0.0974,-0.2829,0.0127,-0.9541,54.8400,3.9700,-61.8000,-20.4300,2.1200,-12.4100,0.0000,0.0000,-0.0000,1490.0000,1060.0000,1500.0000,1999.0000
309015.3400,2.0000,1998.0000,1069.0000,1949.0000,63.0000,-130.0000,-11.0000,1223.0000,-499.0000,10223.0000,-0.0966,-0.3010,0.0038,-0.9487,54.3100,3.9400,-62.1200,-20.5500,1.6900,-12.9200,0.0000,0.0000,-0.0000,1490.0000,1060.0000,1500.0000,1999.0000
309032.3730,2.0000,1998.0000,1069.0000,1949.0000,33.0000,-123.0000,-9.0000,1166.0000,-446.0000,10654.0000,-0.0966,-0.3193,-0.0012,-0.9427,53.8000,3.9000,-62.4300,-20.5700,1.3000,-13.4900,0.0000,0.0000,-0.0000,1490.0000,1060.0000,1500.0000,1999.0000
309049.2670,2.0000,1998.0000,1069.0000,1949.0000,14.0000,-139.0000,-7.0000,1164.0000,-473.0000,11068.0000,-0.0975,-0.3376,-0.0024,-0.9362,53.3300,3.8600,-62.7400,-20.4900,0.9600,-14.0600,0.0000,0.0000,-0.0000,1490.0000,1060.0000,1500.0000,1999.0000
309066.1620,2.0000,1997.0000,1000.0000,1760.0000,-5.0000,-127.0000,-4.0000,1329.0000,-707.0000,11580.0000,-0.0991,-0.3567,-0.0008,-0.9289,52.9000,3.8200,-63.0600,-20.3200,0.6700,-14.6500,0.0000,0.0000,-0.0000,1681.0000,1061.0000,1500.0000,1998.0000
309082.9500,2.0000,1997.0000,1000.0000,1760.0000,-14.0000,-120.0000,-1.0000,1315.0000,-630.0000,11134.0000,-0.1009,-0.3736,0.0026,-0.9221,52.9000,3.8200,-63.0600,-20.3200,0.6700,-14.6500,0.0000,0.0000,-0.0000,1681.0000,1061.0000,1500.0000,1998.0000
309099.9870,2.0000,1997.0000,1000.0000,1760.0000,-5.0000,-122.0000,-5.0000,1191.0000,-535.0000,10030.0000,-0.1027,-0.3896,0.0060,-0.9152,52.3600,3.7600,-63.4100,-20.0200,0.3000,-15.2600,0.0000,0.0000,-0.0000,1681.0000,1061.0000,1500.0000,1998.0000
309116.9220,2.0000,1997.0000,1000.0000,1760.0000,3.0000,-120.0000,-6.0000,1289.0000,-460.0000,9680.0000,-0.1042,-0.4061,0.0079,-0.9078,51.8600,3.7100,-63.7700,-19.7600,0.0000,-15.7600,0.0000,0.0000,-0.0000,1681.0000,1061.0000,1500.0000,1998.0000
309133.7360,2.0000,1997.0000,1000.0000,1760.0000,-8.0000,-120.0000,-10.0000,1218.0000,-623.0000,8668.0000,-0.1062,-0.4219,0.0097,-0.9003,51.3800,3.6500,-64.1300,-19.5100,-0.2500,-16.1800,0.0000,0.0000,-0.0000,1681.0000,1061.0000,1500.0000,1998.0000
