t_ms,msp,motor,servo0,servo1,gyro_p,gyro_q,gyro_r,acc_x,acc_y,acc_z,qw,qx,qy,qz,pos_n,pos_e,pos_d,vel_n,vel_e,vel_d,tgtpos_n,tgtpos_e,tgtpos_d,rcData0,rcData1,rcData2,rcData3
230031.2910,3.0000,1620.0000,1475.0000,1517.0000,7.0000,-3.0000,2.0000,464.0000,-168.0000,2283.0000,-0.0062,0.0133,-0.1687,0.9856,152.0300,-98.1900,-102.5800,-23.8800,6.1500,-0.7500,0.0000,0.0000,-0.0000,1500.0000,1500.0000,1500.0000,1640.0000
230047.9840,3.0000,1620.0000,1474.0000,1516.0000,5.0000,-3.0000,3.0000,259.0000,-197.0000,2247.0000,-0.0065,0.0137,-0.1678,0.9857,152.0300,-98.1900,-102.5800,-23.8800,6.1500,-0.7500,0.0000,0.0000,-0.0000,1500.0000,1500.0000,1500.0000,1640.0000
230064.6090,3.0000,1620.0000,1475.0000,1515.0000,5.0000,-5.0000,3.0000,197.0000,-181.0000,2143.0000,-0.0068,0.0143,-0.1671,0.9858,151.5600,-98.0600,-102.6000,-23.8500,6.2000,-0.7600,0.0000,0.0000,-0.0000,1500.0000,1500.0000,1500.0000,1640.0000
230081.1650,3.0000,1620.0000,1473.0000,1515.0000,3.0000,-2.0000,2.0000,209.0000,-263.0000,2077.0000,-0.0072,0.0149,-0.1665,0.9859,151.0400,-97.9100,-102.6100,-23.8500,6.2800,-0.7600,0.0000,0.0000,-0.0000,1500.0000,1498.0000,1500.0000,1641.0000
230098.0130,3.0000,1618.0000,1471.0000,1517.0000,3.0000,0.0000,2.0000,135.0000,-84.0000,1974.0000,-0.0074,0.0151,-0.1660,0.9860,150.5200,-97.7600,-102.6300,-23.8300,6.3400,-0.7600,0.0000,0.0000,-0.0000,1497.0000,1500.0000,1500.0000,1638.0000
230114.7880,3.0000,1617.0000,1478.0000,1522.0000,8.0000,-1.0000,3.0000,143.0000,-24.0000,1916.0000,-0.0077,0.0153,-0.1652,0.9861,150.0300,-97.6200,-102.6400,-23.8000,6.4000,-0.7500,0.0000,0.0000,-0.0000,1497.0000,1500.0000,1500.0000,1638.0000
230131.4440,3.0000,1617.0000,1477.0000,1519.0000,8.0000,-2.0000,3.0000,223.0000,-169.0000,1956.0000,-0.0081,0.0155,-0.1639,0.9863,149.5500,-97.4800,-102.6500,-23.7500,6.4600,-0.7300,0.0000,0.0000,-0.0000,1500.0000,1500.0000,1500.0000,1638.0000
230148.0290,3.0000,1620.0000,1475.0000,1517.0000,6.0000,-1.0000,3.0000,561.0000,-209.0000,1960.0000,-0.0084,0.0159,-0.1628,0.9865,149.5500,-97.4800,-102.6500,-23.7500,6.4600,-0.7300,0.0000,0.0000,-0.0000,1500.0000,1500.0000,1500.0000,1640.0000
230164.5190,3.0000,1620.0000,1477.0000,1519.0000,8.0000,-2.0000,3.0000,604.0000,-192.0000,1983.0000,-0.0090,0.0154,-0.1615,0.9867,149.0900,-97.3500,-102.6600,-23.7100,6.5000,-0.7300,0.0000,0.0000,-0.0000,1500.0000,1500.0000,1500.0000,1640.0000
230181.1140,3.0000,1620.0000,1476.0000,1518.0000,8.0000,-1.0000,3.0000,309.0000,-254.0000,2066.0000,-0.0096,0.0151,-0.1603,0.9869,148.5700,-97.2000,-102.6800,-23.7700,6.5800,-0.7200,0.0000,0.0000,-0.0000,1498.0000,1498.0000,1500.0000,1640.0000
230197.7640,3.0000,1620.0000,1477.0000,1521.0000,10.0000,0.0000,5.0000,321.0000,-282.0000,2034.0000,-0.0102,0.0148,-0.1589,0.9871,148.0700,-97.0500,-102.6900,-23.8000,6.6500,-0.7200,0.0000,0.0000,-0.0000,1500.0000,1500.0000,1500.0000,1640.0000
230214.4000,3.0000,1620.0000,1479.0000,1521.0000,12.0000,-1.0000,5.0000,394.0000,-219.0000,1994.0000,-0.0109,0.0146,-0.1573,0.9874,147.5800,-96.9000,-102.7000,-23.8000,6.7100,-0.7300,0.0000,0.0000,-0.0000,1500.0000,1500.0000,1500.0000,1640.0000
230231.0130,3.0000,1617.0000,1478.0000,1522.0000,11.0000,-1.0000,6.0000,430.0000,-205.0000,1898.0000,-0.0118,0.0145,-0.1557,0.9876,147.1100,-96.7600,-102.7100,-23.7900,6.7600,-0.7200,0.0000,0.0000,-0.0000,1497.0000,1500.0000,1500.0000,1638.0000
230248.0360,3.0000,1619.0000,1480.0000,1522.0000,11.0000,-3.0000,8.0000,207.0000,-336.0000,1799.0000,-0.0129,0.0147,-0.1542,0.9878,147.1100,-96.7600,-102.7100,-23.7900,6.7600,-0.7200,0.0000,0.0000,-0.0000,1497.0000,1500.0000,1500.0000,1640.0000
230264.7360,3.0000,1620.0000,1479.0000,1519.0000,9.0000,-3.0000,10.0000,51.0000,-344.0000,1733.0000,-0.0142,0.0149,-0.1531,0.9880,146.6500,-96.6200,-102.7300,-23.7700,6.8000,-0.7100,0.0000,0.0000,-0.0000,1500.0000,1500.0000,1500.0000,1640.0000
230281.2460,3.0000,1620.0000,1479.0000,1517.0000,7.0000,-5.0000,12.0000,274.0000,-380.0000,1726.0000,-0.0158,0.0155,-0.1524,0.9881,146.1300,-96.4600,-102.7400,-23.7700,6.8300,-0.6900,0.0000,0.0000,-0.0000,1500.0000,1498.0000,1500.0000,1640.0000
230297.9310,3.0000,1620.0000,1480.0000,1518.0000,10.0000,-5.0000,11.0000,263.0000,-217.0000,1818.0000,-0.0175,0.0163,-0.1516,0.9881,145.6300,-96.3100,-102.7500,-23.7700,6.8600,-0.6700,0.0000,0.0000,-0.0000,1500.0000,1500.0000,1500.0000,1640.0000
230314.5110,3.0000,1620.0000,1479.0000,1519.0000,10.0000,-3.0000,11.0000,254.0000,-120.0000,1863.0000,-0.0191,0.0168,-0.1505,0.9883,145.1500,-96.1600,-102.7700,-23.7500,6.9000,-0.6500,0.0000,0.0000,-0.0000,1500.0000,1500.0000,1500.0000,1640.0000
230331.1520,3.0000,1620.0000,1480.0000,1520.0000,10.0000,-3.0000,11.0000,210.0000,-158.0000,1950.0000,-0.0208,0.0172,-0.1495,0.9884,145.1500,-96.1600,-102.7700,-23.7500,6.9000,-0.6500,0.0000,0.0000,-0.0000,1500.0000,1500.0000,1500.0000,1640.0000
230347.8100,3.0000,1620.0000,1479.0000,1519.0000,9.0000,-2.0000,11.0000,215.0000,-275.0000,2163.0000,-0.0226,0.0169,-0.1484,0.9885,144.6800,-96.0200,-102.7800,-23.7200,6.9400,-0.6300,0.0000,0.0000,-0.0000,1500.0000,1500.0000,1500.0000,1640.0000
230364.4360,3.0000,1620.0000,1478.0000,1518.0000,6.0000,-4.0000,10.0000,367.0000,-251.0000,2225.0000,-0.0243,0.0168,-0.1476,0.9886,144.1500,-95.8500,-102.7900,-23.7700,7.0100,-0.6400,0.0000,0.0000,-0.0000,1500.0000,1500.0000,1500.0000,1640.0000
230380.8710,3.0000,1617.0000,1478.0000,1516.0000,5.0000,-4.0000,9.0000,260.0000,-237.0000,2202.0000,-0.0259,0.0167,-0.1472,0.9886,143.6400,-95.6900,-102.8000,-23.8000,7.0800,-0.6600,0.0000,0.0000,-0.0000,1500.0000,1500.0000,1500.0000,1638.0000
230397.4460,3.0000,1620.0000,1477.0000,1515.0000,3.0000,-4.0000,10.0000,392.0000,-322.0000,2260.0000,-0.0274,0.0170,-0.1472,0.9886,143.1500,-95.5400,-102.8200,-23.8200,7.1300,-0.6800,0.0000,0.0000,-0.0000,1500.0000,1500.0000,1500.0000,1640.0000
230414.1190,3.0000,1620.0000,1477.0000,1517.0000,5.0000,-3.0000,10.0000,558.0000,-267.0000,2230.0000,-0.0288,0.0174,-0.1470,0.9886,142.6600,-95.3900,-102.8300,-23.8300,7.1800,-0.7000,0.0000,0.0000,-0.0000,1500.0000,1500.0000,1500.0000,1640.0000
230430.6210,3.0000,1620.0000,1478.0000,1518.0000,6.0000,-3.0000,8.0000,319.0000,-220.0000,2185.0000,-0.0300,0.0177,-0.1466,0.9886,142.6600,-95.3900,-102.8300,-23.8300,7.1800,-0.7000,0.0000,0.0000,-0.0000,1500.0000,1500.0000,1500.0000,1640.0000
230447.3040,3.0000,1620.0000,1479.0000,1519.0000,7.0000,-4.0000,6.0000,198.0000,-42.0000,2120.0000,-0.0309,0.0183,-0.1459,0.9886,142.2000,-95.2400,-102.8400,-23.8300,7.2200,-0.7100,0.0000,0.0000,-0.0000,1500.0000,1500.0000,1500.0000,1640.0000
230463.9100,3.0000,1620.0000,1480.0000,1518.0000,7.0000,-5.0000,5.0000,213.0000,-221.0000,2130.0000,-0.0318,0.0191,-0.1453,0.9887,141.6700,-95.0700,-102.8600,-23.8500,7.2900,-0.7200,0.0000,0.0000,-0.0000,1500.0000,1498.0000,1500.0000,1640.0000
230480.3920,3.0000,1620.0000,1480.0000,1520.0000,9.0000,-2.0000,4.0000,236.0000,-297.0000,2162.0000,-0.0324,0.0200,-0.1443,0.9888,141.1700,-94.9000,-102.8700,-23.8500,7.3400,-0.7300,0.0000,0.0000,-0.0000,1500.0000,1498.0000,1500.0000,1640.0000
230497.1000,3.0000,1620.0000,1479.0000,1521.0000,9.0000,-1.0000,3.0000,253.0000,-134.0000,2101.0000,-0.0329,0.0203,-0.1432,0.9889,140.6800,-94.7400,-102.8900,-23.8300,7.3800,-0.7500,0.0000,0.0000,-0.0000,1500.0000,1500.0000,1500.0000,1640.0000
230513.6930,3.0000,1620.0000,1479.0000,1519.0000,7.0000,-2.0000,1.0000,207.0000,-59.0000,2040.0000,-0.0331,0.0206,-0.1422,0.9891,140.6800,-94.7400,-102.8900,-23.8300,7.3800,-0.7500,0.0000,0.0000,-0.0000,1500.0000,1500.0000,1500.0000,1640.0000
230530.3500,3.0000,1620.0000,1478.0000,1518.0000,5.0000,-2.0000,0.0000,221.0000,-164.0000,2022.0000,-0.0331,0.0211,-0.1413,0.9892,140.2000,-94.5900,-102.9000,-23.8000,7.4200,-0.7500,0.0000,0.0000,-0.0000,1500.0000,1500.0000,1500.0000,1640.0000
230547.1210,3.0000,1620.0000,1476.0000,1518.0000,4.0000,0.0000,0.0000,280.0000,-70.0000,2027.0000,-0.0331,0.0213,-0.1404,0.9893,139.7300,-94.4300,-102.9200,-23.7600,7.4500,-0.7600,0.0000,0.0000,-0.0000,1500.0000,1500.0000,1500.0000,1640.0000
230564.0500,3.0000,1620.0000,1475.0000,1519.0000,3.0000,1.0000,-2.0000,200.0000,-22.0000,2053.0000,-0.0329,0.0212,-0.1398,0.9894,139.2200,-94.2600,-102.9300,-23.7800,7.5200,-0.7500,0.0000,0.0000,-0.0000,1500.0000,1500.0000,1500.0000,1640.0000
230580.8120,3.0000,1620.0000,1477.0000,1517.0000,2.0000,-1.0000,-3.0000,257.0000,-161.0000,2014.0000,-0.0326,0.0215,-0.1391,0.9895,138.7100,-94.0900,-102.9500,-23.7800,7.5800,-0.7600,0.0000,0.0000,-0.0000,1500.0000,1500.0000,1500.0000,1640.0000
230597.6100,3.0000,1620.0000,1475.0000,1519.0000,2.0000,1.0000,-2.0000,232.0000,-252.0000,2031.0000,-0.0323,0.0215,-0.1387,0.9896,138.2200,-93.9300,-102.9700,-23.7700,7.6100,-0.7600,0.0000,0.0000,-0.0000,1500.0000,1500.0000,1500.0000,1640.0000
230614.3210,3.0000,1620.0000,1476.0000,1518.0000,2.0000,0.0000,-1.0000,86.0000,-227.0000,1999.0000,-0.0321,0.0216,-0.1382,0.9897,138.2200,-93.9300,-102.9700,-23.7700,7.6100,-0.7600,0.0000,0.0000,-0.0000,1500.0000,1500.0000,1500.0000,1640.0000
230630.9020,3.0000,1620.0000,1477.0000,1517.0000,3.0000,-2.0000,0.0000,70.0000,-229.0000,1997.0000,-0.0320,0.0217,-0.1375,0.9897,137.7500,-93.7700,-102.9800,-23.7300,7.6400,-0.7600,0.0000,0.0000,-0.0000,1500.0000,1498.0000,1500.0000,1640.0000
230647.7060,3.0000,1620.0000,1478.0000,1518.0000,4.0000,-1.0000,0.0000,83.0000,-209.0000,2012.0000,-0.0320,0.0217,-0.1366,0.9899,137.2800,-93.6100,-103.0000,-23.6900,7.6600,-0.7500,0.0000,0.0000,-0.0000,1498.0000,1498.0000,1500.0000,1640.0000
230664.3660,3.0000,1620.0000,1479.0000,1517.0000,3.0000,-3.0000,1.0000,116.0000,-339.0000,2044.0000,-0.0322,0.0220,-0.1359,0.9900,136.7700,-93.4400,-103.0100,-23.6900,7.7000,-0.7600,0.0000,0.0000,-0.0000,1498.0000,1500.0000,1500.0000,1640.0000
230681.1420,3.0000,1620.0000,1479.0000,1517.0000,4.0000,-3.0000,2.0000,203.0000,-205.0000,2032.0000,-0.0327,0.0225,-0.1352,0.9900,136.2700,-93.2700,-103.0300,-23.6800,7.7300,-0.7700,0.0000,0.0000,-0.0000,1500.0000,1498.0000,1500.0000,1640.0000
230697.7370,3.0000,1620.0000,1477.0000,1517.0000,3.0000,-1.0000,4.0000,235.0000,-314.0000,2057.0000,-0.0331,0.0227,-0.1345,0.9901,135.7900,-93.1100,-103.0500,-23.6700,7.7600,-0.7700,0.0000,0.0000,-0.0000,1500.0000,1498.0000,1500.0000,1640.0000
230714.3770,3.0000,1620.0000,1479.0000,1517.0000,5.0000,-2.0000,6.0000,417.0000,-292.0000,2060.0000,-0.0338,0.0230,-0.1341,0.9901,135.7900,-93.1100,-103.0500,-23.6700,7.7600,-0.7700,0.0000,0.0000,-0.0000,1500.0000,1500.0000,1500.0000,1640.0000
230731.1060,3.0000,1620.0000,1480.0000,1518.0000,6.0000,-4.0000,7.0000,21.0000,-330.0000,2067.0000,-0.0349,0.0236,-0.1333,0.9902,135.3200,-92.9500,-103.0700,-23.6600,7.7800,-0.7800,0.0000,0.0000,-0.0000,1500.0000,1500.0000,1500.0000,1640.0000
230747.6580,3.0000,1620.0000,1479.0000,1517.0000,3.0000,-3.0000,9.0000,145.0000,-296.0000,2098.0000,-0.0361,0.0239,-0.1328,0.9902,134.8600,-92.7900,-103.0800,-23.6200,7.7900,-0.7900,0.0000,0.0000,-0.0000,1500.0000,1500.0000,1500.0000,1640.0000
230764.3270,3.0000,1620.0000,1480.0000,1518.0000,6.0000,-4.0000,10.0000,403.0000,-184.0000,2070.0000,-0.0375,0.0244,-0.1323,0.9902,134.3600,-92.6200,-103.1000,-23.6300,7.8200,-0.8000,0.0000,0.0000,-0.0000,1500.0000,1500.0000,1500.0000,1640.0000
230780.9580,3.0000,1620.0000,1481.0000,1519.0000,7.0000,-3.0000,11.0000,291.0000,-254.0000,2030.0000,-0.0390,0.0251,-0.1317,0.9902,133.8600,-92.4500,-103.1200,-23.6400,7.8600,-0.8000,0.0000,0.0000,-0.0000,1500.0000,1500.0000,1500.0000,1640.0000
230797.9180,3.0000,1620.0000,1481.0000,1517.0000,6.0000,-4.0000,11.0000,36.0000,-285.0000,2028.0000,-0.0407,0.0256,-0.1312,0.9902,133.8600,-92.4500,-103.1200,-23.6400,7.8600,-0.8000,0.0000,0.0000,-0.0000,1500.0000,1500.0000,1500.0000,1640.0000
230814.6750,3.0000,1620.0000,1479.0000,1517.0000,3.0000,-3.0000,11.0000,207.0000,-199.0000,2077.0000,-0.0424,0.0259,-0.1311,0.9901,133.3900,-92.2800,-103.1400,-23.6100,7.8800,-0.8000,0.0000,0.0000,-0.0000,1500.0000,1500.0000,1500.0000,1640.0000
230831.5510,2.0000,1704.0000,1007.0000,1867.0000,6.0000,-2.0000,12.0000,161.0000,-306.0000,2123.0000,-0.0441,0.0263,-0.1309,0.9901,132.9300,-92.1200,-103.1500,-23.5700,7.9000,-0.8000,0.0000,0.0000,-0.0000,1566.0000,1069.0000,1500.0000,1721.0000
230848.4110,2.0000,1705.0000,1005.0000,1867.0000,3.0000,-2.0000,10.0000,159.0000,-324.0000,2115.0000,-0.0458,0.0259,-0.1306,0.9900,132.4800,-91.9600,-103.1700,-23.5300,7.9200,-0.8100,0.0000,0.0000,-0.0000,1566.0000,1069.0000,1500.0000,1721.0000
230865.0590,2.0000,1705.0000,1005.0000,1867.0000,1.0000,-8.0000,10.0000,-8.0000,-437.0000,1967.0000,-0.0475,0.0261,-0.1306,0.9900,131.9700,-91.7900,-103.1900,-23.5600,7.9600,-0.8200,0.0000,0.0000,-0.0000,1566.0000,1069.0000,1500.0000,1721.0000
230882.0890,2.0000,1705.0000,1005.0000,1867.0000,-3.0000,-30.0000,8.0000,6.0000,-396.0000,1248.0000,-0.0491,0.0279,-0.1310,0.9898,131.4800,-91.6200,-103.2100,-23.5600,7.9800,-0.8100,0.0000,0.0000,-0.0000,1566.0000,1069.0000,1500.0000,1721.0000
230899.1090,2.0000,1705.0000,1005.0000,1867.0000,0.0000,-65.0000,4.0000,-37.0000,-383.0000,563.0000,-0.0509,0.0347,-0.1318,0.9894,131.4800,-91.6200,-103.2100,-23.5600,7.9800,-0.8100,0.0000,0.0000,-0.0000,1566.0000,1069.0000,1500.0000,1721.0000
230915.9770,2.0000,1705.0000,1005.0000,1867.0000,8.0000,-104.0000,-3.0000,-46.0000,-211.0000,1331.0000,-0.0526,0.0471,-0.1315,0.9888,131.0100,-91.4500,-103.2200,-23.5400,7.9700,-0.7100,0.0000,0.0000,-0.0000,1566.0000,1069.0000,1500.0000,1721.0000
230932.6610,2.0000,1730.0000,1022.0000,1860.0000,16.0000,-140.0000,-10.0000,12.0000,-56.0000,2944.0000,-0.0541,0.0646,-0.1292,0.9880,130.5500,-91.2900,-103.2400,-23.5100,7.9700,-0.6100,0.0000,0.0000,-0.0000,1561.0000,1081.0000,1500.0000,1746.0000
230949.5350,2.0000,1731.0000,1022.0000,1860.0000,27.0000,-176.0000,-14.0000,169.0000,-32.0000,4820.0000,-0.0554,0.0878,-0.1248,0.9867,130.1000,-91.1300,-103.2500,-23.4400,8.0200,-0.6500,0.0000,0.0000,-0.0000,1561.0000,1081.0000,1500.0000,1746.0000
230966.5650,2.0000,1731.0000,1022.0000,1860.0000,29.0000,-180.0000,-16.0000,520.0000,-228.0000,6725.0000,-0.0566,0.1140,-0.1192,0.9847,129.5900,-90.9400,-103.2600,-23.3900,8.1500,-0.8800,0.0000,0.0000,-0.0000,1561.0000,1081.0000,1500.0000,1746.0000
230983.4870,2.0000,1731.0000,1022.0000,1860.0000,27.0000,-187.0000,-19.0000,955.0000,-216.0000,8463.0000,-0.0577,0.1407,-0.1134,0.9818,129.1000,-90.7600,-103.2800,-23.2700,8.2700,-1.3100,0.0000,0.0000,-0.0000,1561.0000,1081.0000,1500.0000,1746.0000
231000.4140,2.0000,1731.0000,1022.0000,1860.0000,21.0000,-181.0000,-18.0000,992.0000,-319.0000,9234.0000,-0.0583,0.1674,-0.1078,0.9782,129.1000,-90.7600,-103.2800,-23.2700,8.2700,-1.3100,0.0000,0.0000,-0.0000,1561.0000,1081.0000,1500.0000,1746.0000
231017.2150,2.0000,1731.0000,1022.0000,1860.0000,18.0000,-168.0000,-17.0000,960.0000,-449.0000,9808.0000,-0.0590,0.1922,-0.1029,0.9742,128.6500,-90.5900,-103.3000,-23.0900,8.3900,-1.8700,0.0000,0.0000,-0.0000,1561.0000,1081.0000,1500.0000,1746.0000
231034.1130,2.0000,1770.0000,1000.0000,1511.0000,14.0000,-151.0000,-17.0000,1066.0000,-623.0000,10831.0000,-0.0592,0.2151,-0.0985,0.9698,128.2300,-90.4200,-103.3300,-22.8300,8.4700,-2.4900,0.0000,0.0000,-0.0000,1999.0000,1062.0000,1500.0000,1792.0000
231050.7390,2.0000,1779.0000,1000.0000,1440.0000,10.0000,-121.0000,-20.0000,1089.0000,-550.0000,10493.0000,-0.0587,0.2349,-0.0952,0.9656,127.8000,-90.2500,-103.3700,-22.5400,8.5400,-3.2100,0.0000,0.0000,-0.0000,1999.0000,1062.0000,1500.0000,1792.0000
231067.7160,2.0000,1779.0000,1000.0000,1440.0000,18.0000,-98.0000,-20.0000,993.0000,-384.0000,10067.0000,-0.0578,0.2504,-0.0915,0.9621,127.2900,-90.0500,-103.4200,-22.3800,8.6500,-3.9000,0.0000,0.0000,-0.0000,1999.0000,1062.0000,1500.0000,1792.0000
231084.7180,2.0000,1779.0000,1000.0000,1440.0000,28.0000,-52.0000,-21.0000,978.0000,-371.0000,9485.0000,-0.0567,0.2618,-0.0869,0.9595,126.8200,-89.8600,-103.4900,-22.2000,8.7300,-4.5300,0.0000,0.0000,-0.0000,1999.0000,1062.0000,1500.0000,1792.0000
231102.0560,2.0000,1779.0000,1000.0000,1440.0000,45.0000,-20.0000,-21.0000,1035.0000,-385.0000,8987.0000,-0.0553,0.2671,-0.0808,0.9587,126.3700,-89.6800,-103.5700,-22.0200,8.7800,-5.1100,0.0000,0.0000,-0.0000,1999.0000,1062.0000,1500.0000,1792.0000
231118.5400,2.0000,1779.0000,1000.0000,1440.0000,74.0000,1.0000,-27.0000,939.0000,-692.0000,7769.0000,-0.0540,0.2676,-0.0717,0.9594,126.3700,-89.6800,-103.5700,-22.0200,8.7800,-5.1100,0.0000,0.0000,-0.0000,1999.0000,1062.0000,1500.0000,1792.0000
231135.2320,2.0000,1728.0000,1000.0000,1442.0000,102.0000,27.0000,-29.0000,1108.0000,-696.0000,6814.0000,-0.0534,0.2649,-0.0584,0.9610,125.9700,-89.5100,-103.6600,-21.8900,8.7600,-5.6100,0.0000,0.0000,-0.0000,1995.0000,1064.0000,1500.0000,1743.0000
231151.7930,2.0000,1728.0000,1000.0000,1442.0000,123.0000,36.0000,-33.0000,1037.0000,-411.0000,5862.0000,-0.0534,0.2597,-0.0413,0.9633,125.5500,-89.3400,-103.7500,-21.7800,8.7300,-6.0100,0.0000,0.0000,-0.0000,1995.0000,1064.0000,1500.0000,1743.0000
231168.8130,2.0000,1728.0000,1000.0000,1442.0000,133.0000,36.0000,-36.0000,870.0000,-584.0000,4430.0000,-0.0533,0.2535,-0.0221,0.9656,125.0500,-89.1400,-103.8500,-21.6200,8.7600,-6.3100,0.0000,0.0000,-0.0000,1995.0000,1064.0000,1500.0000,1743.0000
231185.5090,2.0000,1728.0000,1000.0000,1442.0000,145.0000,31.0000,-37.0000,774.0000,-530.0000,3394.0000,-0.0536,0.2476,-0.0008,0.9674,124.5900,-88.9500,-103.9600,-21.5200,8.7500,-6.4700,0.0000,0.0000,-0.0000,1995.0000,1064.0000,1500.0000,1743.0000
231202.5860,2.0000,1728.0000,1000.0000,1442.0000,159.0000,21.0000,-34.0000,828.0000,-658.0000,2550.0000,-0.0541,0.2423,0.0219,0.9684,124.5900,-88.9500,-103.9600,-21.5200,8.7500,-6.4700,0.0000,0.0000,-0.0000,1995.0000,1064.0000,1500.0000,1743.0000
231219.2150,2.0000,1728.0000,1000.0000,1442.0000,173.0000,5.0000,-34.0000,575.0000,-653.0000,1794.0000,-0.0555,0.2387,0.0466,0.9684,124.1500,-88.7700,-104.0700,-21.4500,8.7000,-6.5300,0.0000,0.0000,-0.0000,1995.0000,1064.0000,1500.0000,1743.0000
231235.7770,2.0000,1728.0000,1000.0000,1442.0000,189.0000,-13.0000,-33.0000,369.0000,-420.0000,1459.0000,-0.0575,0.2375,0.0731,0.9669,123.7500,-88.6100,-104.1800,-21.4000,8.6400,-6.5100,0.0000,0.0000,-0.0000,1995.0000,1064.0000,1500.0000,1743.0000
231252.6460,2.0000,1972.0000,1000.0000,1684.0000,207.0000,-37.0000,-32.0000,341.0000,-464.0000,1628.0000,-0.0601,0.2392,0.1028,0.9636,123.3300,-88.4400,-104.2900,-21.3000,8.5900,-6.4200,0.0000,0.0000,-0.0000,1760.0000,1056.0000,1500.0000,1975.0000
231269.3630,2.0000,1973.0000,1000.0000,1685.0000,212.0000,-59.0000,-30.0000,583.0000,-479.0000,2358.0000,-0.0631,0.2435,0.1340,0.9585,122.8700,-88.2500,-104.4000,-21.1000,8.5400,-6.3500,0.0000,0.0000,-0.0000,1760.0000,1056.0000,1500.0000,1975.0000
231286.1400,2.0000,1973.0000,1000.0000,1685.0000,216.0000,-76.0000,-24.0000,823.0000,-584.0000,3000.0000,-0.0666,0.2499,0.1658,0.9516,122.4300,-88.0700,-104.5100,-20.8900,8.4500,-6.3600,0.0000,0.0000,-0.0000,1760.0000,1056.0000,1500.0000,1975.0000
231303.1450,2.0000,1973.0000,1000.0000,1685.0000,195.0000,-95.0000,-21.0000,895.0000,-556.0000,3158.0000,-0.0692,0.2591,0.1966,0.9431,122.4300,-88.0700,-104.5100,-20.8900,8.4500,-6.3600,0.0000,0.0000,-0.0000,1760.0000,1056.0000,1500.0000,1975.0000
231319.8370,2.0000,1973.0000,1000.0000,1685.0000,168.0000,-120.0000,-12.0000,1147.0000,-601.0000,3741.0000,-0.0712,0.2712,0.2234,0.9335,122.0200,-87.9000,-104.6200,-20.6700,8.3200,-6.3800,0.0000,0.0000,-0.0000,1760.0000,1056.0000,1500.0000,1975.0000
231336.7100,2.0000,1973.0000,1000.0000,1685.0000,145.0000,-134.0000,-6.0000,1510.0000,-631.0000,4790.0000,-0.0729,0.2867,0.2469,0.9228,121.6300,-87.7500,-104.7200,-20.4500,8.1600,-6.4300,0.0000,0.0000,-0.0000,1760.0000,1056.0000,1500.0000,1975.0000
231353.4950,2.0000,1980.0000,1000.0000,1568.0000,124.0000,-149.0000,-1.0000,1548.0000,-606.0000,5688.0000,-0.0740,0.3042,0.2671,0.9114,121.2300,-87.5800,-104.8300,-20.2600,7.9200,-6.5500,0.0000,0.0000,-0.0000,1877.0000,1057.0000,1500.0000,1983.0000
231370.5120,2.0000,1981.0000,1000.0000,1567.0000,107.0000,-157.0000,2.0000,1574.0000,-477.0000,6503.0000,-0.0748,0.3230,0.2847,0.8995,120.8000,-87.4100,-104.9400,-20.0900,7.6100,-6.7400,0.0000,0.0000,-0.0000,1877.0000,1057.0000,1500.0000,1983.0000
231387.4380,2.0000,1981.0000,1000.0000,1567.0000,95.0000,-160.0000,4.0000,1589.0000,-536.0000,7422.0000,-0.0748,0.3424,0.3000,0.8873,120.3900,-87.2600,-105.0600,-19.8500,7.2500,-6.9700,0.0000,0.0000,-0.0000,1877.0000,1057.0000,1500.0000,1983.0000
231404.4350,2.0000,1981.0000,1000.0000,1567.0000,88.0000,-149.0000,0.0000,1769.0000,-530.0000,8103.0000,-0.0736,0.3612,0.3136,0.8751,120.3900,-87.2600,-105.0600,-19.8500,7.2500,-6.9700,0.0000,0.0000,-0.0000,1877.0000,1057.0000,1500.0000,1983.0000
231421.1860,2.0000,1981.0000,1000.0000,1567.0000,78.0000,-134.0000,-5.0000,1998.0000,-519.0000,8583.0000,-0.0721,0.3778,0.3261,0.8635,120.0000,-87.1100,-105.1700,-19.5500,6.8400,-7.2500,0.0000,0.0000,-0.0000,1877.0000,1057.0000,1500.0000,1983.0000
231437.6400,2.0000,1981.0000,1000.0000,1567.0000,68.0000,-124.0000,-13.0000,1758.0000,-335.0000,8390.0000,-0.0702,0.3920,0.3375,0.8530,119.6300,-86.9800,-105.2900,-19.2100,6.4100,-7.5500,0.0000,0.0000,-0.0000,1877.0000,1057.0000,1500.0000,1983.0000
231454.4390,2.0000,1981.0000,1000.0000,1567.0000,57.0000,-103.0000,-20.0000,1756.0000,-246.0000,8220.0000,-0.0674,0.4039,0.3482,0.8433,119.2600,-86.8600,-105.4200,-18.8900,5.9800,-7.8100,0.0000,0.0000,-0.0000,1877.0000,1057.0000,1500.0000,1983.0000
231471.3980,2.0000,1975.0000,1000.0000,1436.0000,41.0000,-74.0000,-27.0000,1953.0000,-193.0000,7735.0000,-0.0644,0.4126,0.3574,0.8354,118.8500,-86.7200,-105.5500,-18.6300,5.5500,-8.0600,0.0000,0.0000,-0.0000,1999.0000,1066.0000,1500.0000,1977.0000
231488.6780,2.0000,1975.0000,1000.0000,1436.0000,46.0000,-60.0000,-35.0000,1968.0000,-277.0000,7184.0000,-0.0613,0.4180,0.3662,0.8291,118.4700,-86.6000,-105.6900,-18.4100,5.1700,-8.2900,0.0000,0.0000,-0.0000,1999.0000,1066.0000,1500.0000,1977.0000
231505.7480,2.0000,1975.0000,1000.0000,1436.0000,67.0000,-46.0000,-45.0000,1777.0000,-425.0000,6781.0000,-0.0578,0.4216,0.3765,0.8229,118.4700,-86.6000,-105.6900,-18.4100,5.1700,-8.2900,0.0000,0.0000,-0.0000,1999.0000,1066.0000,1500.0000,1977.0000
231522.5160,2.0000,1975.0000,1000.0000,1436.0000,85.0000,-30.0000,-57.0000,1630.0000,-290.0000,6281.0000,-0.0552,0.4222,0.3896,0.8166,118.1100,-86.5000,-105.8400,-18.2200,4.8400,-8.4700,0.0000,0.0000,-0.0000,1999.0000,1066.0000,1500.0000,1977.0000
231539.2970,2.0000,1975.0000,1000.0000,1436.0000,102.0000,-16.0000,-65.0000,1605.0000,-408.0000,5504.0000,-0.0533,0.4204,0.4051,0.8101,117.7700,-86.4000,-105.9900,-18.0500,4.5600,-8.5900,0.0000,0.0000,-0.0000,1999.0000,1066.0000,1500.0000,1977.0000
231556.2000,2.0000,1978.0000,1000.0000,1532.0000,116.0000,-17.0000,-68.0000,1737.0000,-418.0000,4586.0000,-0.0523,0.4167,0.4229,0.8030,117.4100,-86.3100,-106.1500,-17.9300,4.2500,-8.6800,0.0000,0.0000,-0.0000,1911.0000,1058.0000,1500.0000,1980.0000
231572.9830,2.0000,1978.0000,1000.0000,1532.0000,134.0000,-16.0000,-75.0000,1608.0000,-339.0000,3777.0000,-0.0515,0.4124,0.4425,0.7946,117.0300,-86.2100,-106.3100,-17.8700,3.9200,-8.7200,0.0000,0.0000,-0.0000,1911.0000,1058.0000,1500.0000,1980.0000
231590.0590,2.0000,1978.0000,1000.0000,1532.0000,144.0000,-28.0000,-78.0000,1477.0000,-367.0000,2917.0000,-0.0508,0.4078,0.4644,0.7845,116.6600,-86.1200,-106.4700,-17.8500,3.6800,-8.6900,0.0000,0.0000,-0.0000,1911.0000,1058.0000,1500.0000,1980.0000
231606.9700,2.0000,1978.0000,1000.0000,1532.0000,149.0000,-48.0000,-79.0000,1436.0000,-279.0000,2432.0000,-0.0490,0.4049,0.4867,0.7725,116.6600,-86.1200,-106.4700,-17.8500,3.6800,-8.6900,0.0000,0.0000,-0.0000,1911.0000,1058.0000,1500.0000,1980.0000
231623.5260,2.0000,1978.0000,1000.0000,1532.0000,153.0000,-64.0000,-81.0000,1197.0000,-307.0000,2210.0000,-0.0461,0.4036,0.5092,0.7588,116.3100,-86.0500,-106.6300,-17.8600,3.5100,-8.6200,0.0000,0.0000,-0.0000,1911.0000,1058.0000,1500.0000,1980.0000
231640.0980,2.0000,1978.0000,1000.0000,1532.0000,155.0000,-82.0000,-78.0000,1045.0000,-454.0000,2441.0000,-0.0422,0.4035,0.5318,0.7434,115.9700,-85.9700,-106.7900,-17.8700,3.3700,-8.5000,0.0000,0.0000,-0.0000,1911.0000,1058.0000,1500.0000,1980.0000
231656.8770,2.0000,1985.0000,1000.0000,1708.0000,160.0000,-95.0000,-77.0000,1212.0000,-577.0000,2872.0000,-0.0375,0.4049,0.5546,0.7260,115.6200,-85.9000,-106.9500,-17.8300,3.1600,-8.3400,0.0000,0.0000,-0.0000,1738.0000,1056.0000,1500.0000,1987.0000
231673.8780,2.0000,1985.0000,1000.0000,1708.0000,159.0000,-111.0000,-72.0000,1649.0000,-611.0000,3523.0000,-0.0319,0.4077,0.5776,0.7065,115.2500,-85.8300,-107.1000,-17.7500,2.8400,-8.1700,0.0000,0.0000,-0.0000,1738.0000,1056.0000,1500.0000,1987.0000
231690.6160,2.0000,1985.0000,1000.0000,1708.0000,153.0000,-137.0000,-66.0000,1684.0000,-717.0000,3897.0000,-0.0249,0.4126,0.5990,0.6858,114.8900,-85.7700,-107.2600,-17.6500,2.4700,-7.9800,0.0000,0.0000,-0.0000,1738.0000,1056.0000,1500.0000,1987.0000
231707.4520,2.0000,1985.0000,1000.0000,1708.0000,137.0000,-152.0000,-60.0000,1511.0000,-716.0000,4398.0000,-0.0154,0.4201,0.6183,0.6640,114.8900,-85.7700,-107.2600,-17.6500,2.4700,-7.9800,0.0000,0.0000,-0.0000,1738.0000,1056.0000,1500.0000,1987.0000
231724.3370,2.0000,1985.0000,1000.0000,1708.0000,119.0000,-166.0000,-50.0000,1445.0000,-573.0000,5095.0000,-0.0048,0.4289,0.6350,0.6425,114.5500,-85.7300,-107.4000,-17.5200,2.0800,-7.7600,0.0000,0.0000,-0.0000,1738.0000,1056.0000,1500.0000,1987.0000
231741.1800,2.0000,1985.0000,1000.0000,1708.0000,103.0000,-177.0000,-40.0000,1631.0000,-606.0000,5870.0000,0.0072,0.4392,0.6491,0.6211,114.2200,-85.6900,-107.5400,-17.3400,1.6700,-7.5000,0.0000,0.0000,-0.0000,1738.0000,1056.0000,1500.0000,1987.0000
231758.0400,2.0000,1979.0000,1000.0000,1541.0000,90.0000,-184.0000,-34.0000,1941.0000,-637.0000,6415.0000,0.0203,0.4506,0.6607,0.6000,113.8700,-85.6500,-107.6700,-17.1700,1.1600,-7.1900,0.0000,0.0000,-0.0000,1903.0000,1058.0000,1500.0000,1981.0000
231774.8440,2.0000,1979.0000,1000.0000,1540.0000,81.0000,-183.0000,-30.0000,1875.0000,-492.0000,6846.0000,0.0339,0.4621,0.6705,0.5794,113.5200,-85.6300,-107.8000,-17.0300,0.6100,-6.8400,0.0000,0.0000,-0.0000,1903.0000,1058.0000,1500.0000,1981.0000
231791.6250,2.0000,1979.0000,1000.0000,1540.0000,77.0000,-174.0000,-26.0000,2010.0000,-416.0000,7361.0000,0.0475,0.4733,0.6789,0.5593,113.1700,-85.6200,-107.9200,-16.8400,0.0600,-6.4600,0.0000,0.0000,-0.0000,1903.0000,1058.0000,1500.0000,1981.0000
231808.4730,2.0000,1979.0000,1000.0000,1540.0000,75.0000,-164.0000,-26.0000,1987.0000,-397.0000,7844.0000,0.0605,0.4841,0.6863,0.5394,113.1700,-85.6200,-107.9200,-16.8400,0.0600,-6.4600,0.0000,0.0000,-0.0000,1903.0000,1058.0000,1500.0000,1981.0000
231825.3360,2.0000,1979.0000,1000.0000,1540.0000,72.0000,-145.0000,-28.0000,2004.0000,-600.0000,8286.0000,0.0720,0.4928,0.6934,0.5207,112.8500,-85.6200,-108.0300,-16.6000,-0.4600,-6.0300,0.0000,0.0000,-0.0000,1903.0000,1058.0000,1500.0000,1981.0000
231841.7070,2.0000,1979.0000,1000.0000,1540.0000,71.0000,-124.0000,-33.0000,2061.0000,-667.0000,8019.0000,0.0817,0.4991,0.7003,0.5038,112.5400,-85.6300,-108.1300,-16.3300,-0.9700,-5.5500,0.0000,0.0000,-0.0000,1903.0000,1058.0000,1500.0000,1981.0000
231858.5150,2.0000,1992.0000,1000.0000,1435.0000,69.0000,-101.0000,-33.0000,1738.0000,-567.0000,7480.0000,0.0893,0.5031,0.7075,0.4883,112.2100,-85.6500,-108.2200,-16.1400,-1.4800,-5.0400,0.0000,0.0000,-0.0000,1999.0000,1068.0000,1500.0000,1994.0000
231875.4520,2.0000,1993.0000,1000.0000,1434.0000,68.0000,-78.0000,-36.0000,2009.0000,-357.0000,6702.0000,0.0948,0.5050,0.7148,0.4744,111.8700,-85.6700,-108.3100,-16.0300,-1.9400,-4.5600,0.0000,0.0000,-0.0000,1999.0000,1068.0000,1500.0000,1994.0000
231892.3840,2.0000,1993.0000,1000.0000,1434.0000,75.0000,-68.0000,-42.0000,1854.0000,-286.0000,6118.0000,0.0993,0.5055,0.7226,0.4609,111.5400,-85.7100,-108.3900,-15.9600,-2.3200,-4.1100,0.0000,0.0000,-0.0000,1999.0000,1068.0000,1500.0000,1994.0000
231909.2610,2.0000,1993.0000,1000.0000,1434.0000,90.0000,-53.0000,-47.0000,1626.0000,-352.0000,5468.0000,0.1021,0.5051,0.7313,0.4468,111.5400,-85.7100,-108.3900,-15.9600,-2.3200,-4.1100,0.0000,0.0000,-0.0000,1999.0000,1068.0000,1500.0000,1994.0000
231926.2690,2.0000,1993.0000,1000.0000,1434.0000,104.0000,-42.0000,-52.0000,1875.0000,-476.0000,4978.0000,0.1024,0.5030,0.7416,0.4319,111.2200,-85.7500,-108.4700,-15.9200,-2.6000,-3.6700,0.0000,0.0000,-0.0000,1999.0000,1068.0000,1500.0000,1994.0000
231943.0050,2.0000,1993.0000,1000.0000,1434.0000,114.0000,-33.0000,-56.0000,1720.0000,-526.0000,4120.0000,0.1009,0.4995,0.7528,0.4167,110.9100,-85.8000,-108.5400,-15.9300,-2.8200,-3.2400,0.0000,0.0000,-0.0000,1999.0000,1068.0000,1500.0000,1994.0000
231959.6390,2.0000,1974.0000,1000.0000,1520.0000,130.0000,-31.0000,-60.0000,1382.0000,-341.0000,3109.0000,0.0981,0.4954,0.7646,0.4005,110.5700,-85.8500,-108.6000,-16.0100,-3.0600,-2.8500,0.0000,0.0000,-0.0000,1904.0000,1059.0000,1500.0000,1973.0000
231976.5330,2.0000,1971.0000,1000.0000,1538.0000,142.0000,-43.0000,-62.0000,1310.0000,-271.0000,2436.0000,0.0953,0.4910,0.7774,0.3814,110.2200,-85.9100,-108.6600,-16.1200,-3.2300,-2.5300,0.0000,0.0000,-0.0000,1904.0000,1059.0000,1500.0000,1973.0000
231993.4190,2.0000,1971.0000,1000.0000,1538.0000,150.0000,-55.0000,-66.0000,1531.0000,-150.0000,1992.0000,0.0930,0.4868,0.7903,0.3602,109.8800,-85.9700,-108.7200,-16.2500,-3.3600,-2.2600,0.0000,0.0000,-0.0000,1904.0000,1059.0000,1500.0000,1973.0000
232010.1470,2.0000,1971.0000,1000.0000,1538.0000,152.0000,-77.0000,-69.0000,1679.0000,-197.0000,1975.0000,0.0932,0.4834,0.8026,0.3370,109.8800,-85.9700,-108.7200,-16.2500,-3.3600,-2.2600,0.0000,0.0000,-0.0000,1904.0000,1059.0000,1500.0000,1973.0000
232027.2850,2.0000,1971.0000,1000.0000,1538.0000,160.0000,-100.0000,-71.0000,1430.0000,-559.0000,1975.0000,0.0957,0.4802,0.8147,0.3108,109.5500,-86.0300,-108.7800,-16.3800,-3.4800,-1.9900,0.0000,0.0000,-0.0000,1904.0000,1059.0000,1500.0000,1973.0000
232044.2270,2.0000,1971.0000,1000.0000,1538.0000,168.0000,-119.0000,-71.0000,1046.0000,-608.0000,2103.0000,0.0999,0.4773,0.8261,0.2824,109.2300,-86.0900,-108.8200,-16.5100,-3.5600,-1.6900,0.0000,0.0000,-0.0000,1904.0000,1059.0000,1500.0000,1973.0000
232061.0830,2.0000,1971.0000,1000.0000,1538.0000,170.0000,-140.0000,-69.0000,1092.0000,-665.0000,2679.0000,0.1063,0.4748,0.8366,0.2517,108.8800,-86.1500,-108.8700,-16.6400,-3.6300,-1.3300,0.0000,0.0000,-0.0000,1904.0000,1059.0000,1500.0000,1973.0000
232078.0930,2.0000,1971.0000,1000.0000,1538.0000,173.0000,-149.0000,-66.0000,1476.0000,-675.0000,3570.0000,0.1140,0.4724,0.8460,0.2194,108.5200,-86.2200,-108.9100,-16.7500,-3.7100,-0.9000,0.0000,0.0000,-0.0000,1904.0000,1059.0000,1500.0000,1973.0000
232095.2300,2.0000,1998.0000,1506.0000,2000.0000,173.0000,-158.0000,-60.0000,1807.0000,-749.0000,4376.0000,0.1232,0.4707,0.8538,0.1852,108.1600,-86.2900,-108.9300,-16.8300,-3.8300,-0.3600,0.0000,0.0000,-0.0000,1062.0000,1069.0000,1500.0000,1999.0000
232112.0980,2.0000,1998.0000,1507.0000,2000.0000,166.0000,-176.0000,-53.0000,1445.0000,-766.0000,4713.0000,0.1337,0.4698,0.8594,0.1512,108.1600,-86.2900,-108.9300,-16.8300,-3.8300,-0.3600,0.0000,0.0000,-0.0000,1062.0000,1069.0000,1500.0000,1999.0000
232128.7790,2.0000,1998.0000,1507.0000,2000.0000,138.0000,-193.0000,-42.0000,1595.0000,-720.0000,5262.0000,0.1474,0.4693,0.8626,0.1186,107.8200,-86.3600,-108.9500,-16.8800,-3.9000,0.2500,0.0000,0.0000,-0.0000,1062.0000,1069.0000,1500.0000,1999.0000
232145.3940,2.0000,1998.0000,1507.0000,2000.0000,90.0000,-204.0000,-28.0000,1338.0000,-946.0000,5937.0000,0.1648,0.4690,0.8630,0.0902,107.5000,-86.4300,-108.9400,-16.9000,-3.9400,0.9200,0.0000,0.0000,-0.0000,1062.0000,1069.0000,1500.0000,1999.0000
232162.1860,2.0000,1998.0000,1507.0000,2000.0000,32.0000,-201.0000,-7.0000,1700.0000,-924.0000,7101.0000,0.1863,0.4690,0.8606,0.0687,107.1300,-86.5000,-108.9300,-16.9400,-3.9300,1.6700,0.0000,0.0000,-0.0000,1062.0000,1069.0000,1500.0000,1999.0000
232179.0490,2.0000,1998.0000,1400.0000,2000.0000,-20.0000,-198.0000,15.0000,2038.0000,-933.0000,8084.0000,0.2112,0.4699,0.8553,0.0547,106.7600,-86.5700,-108.9100,-16.9600,-3.9100,2.5600,0.0000,0.0000,-0.0000,1162.0000,1061.0000,1500.0000,1999.0000
232195.9890,2.0000,1998.0000,1399.0000,2000.0000,-51.0000,-183.0000,29.0000,1958.0000,-835.0000,8658.0000,0.2375,0.4716,0.8479,0.0472,106.4000,-86.6500,-108.8600,-16.9100,-3.8600,3.5300,0.0000,0.0000,-0.0000,1162.0000,1061.0000,1500.0000,1999.0000
232212.4900,2.0000,1998.0000,1399.0000,2000.0000,-72.0000,-170.0000,42.0000,1809.0000,-752.0000,8768.0000,0.2628,0.4742,0.8391,0.0446,106.4000,-86.6500,-108.8600,-16.9100,-3.8600,3.5300,0.0000,0.0000,-0.0000,1162.0000,1061.0000,1500.0000,1999.0000
232229.2650,2.0000,1998.0000,1399.0000,2000.0000,-80.0000,-161.0000,49.0000,1665.0000,-623.0000,8490.0000,0.2882,0.4768,0.8292,0.0445,106.0600,-86.7100,-108.8000,-16.7800,-3.7600,4.5100,0.0000,0.0000,-0.0000,1162.0000,1061.0000,1500.0000,1999.0000
232246.0090,2.0000,1998.0000,1399.0000,2000.0000,-85.0000,-153.0000,53.0000,1892.0000,-486.0000,8382.0000,0.3125,0.4795,0.8187,0.0462,105.7300,-86.7700,-108.7100,-16.6000,-3.6400,5.4300,0.0000,0.0000,-0.0000,1162.0000,1061.0000,1500.0000,1999.0000
232262.7010,2.0000,1998.0000,1399.0000,2000.0000,-95.0000,-150.0000,54.0000,1795.0000,-179.0000,7919.0000,0.3362,0.4816,0.8078,0.0493,105.3600,-86.8400,-108.6200,-16.5400,-3.5000,6.3000,0.0000,0.0000,-0.0000,1162.0000,1061.0000,1500.0000,1999.0000
232279.5720,2.0000,1996.0000,1000.0000,1435.0000,-101.0000,-140.0000,53.0000,1932.0000,-230.0000,8468.0000,0.3598,0.4829,0.7965,0.0537,104.9700,-86.9000,-108.5100,-16.5100,-3.3600,7.1000,0.0000,0.0000,-0.0000,1999.0000,1068.0000,1500.0000,1997.0000
232296.5940,2.0000,1996.0000,1000.0000,1434.0000,-108.0000,-138.0000,52.0000,1646.0000,-178.0000,8305.0000,0.3834,0.4835,0.7847,0.0592,104.9700,-86.9000,-108.5100,-16.5100,-3.3600,7.1000,0.0000,0.0000,-0.0000,1999.0000,1068.0000,1500.0000,1997.0000
232313.3190,2.0000,1996.0000,1000.0000,1434.0000,-103.0000,-136.0000,48.0000,1748.0000,-80.0000,8127.0000,0.4059,0.4836,0.7728,0.0651,104.6000,-86.9600,-108.4000,-16.4500,-3.1900,7.8800,0.0000,0.0000,-0.0000,1999.0000,1068.0000,1500.0000,1997.0000
232330.3300,2.0000,1996.0000,1000.0000,1434.0000,-79.0000,-135.0000,34.0000,1798.0000,-41.0000,8208.0000,0.4278,0.4832,0.7608,0.0687,104.2600,-87.0000,-108.2800,-16.3700,-3.0200,8.5500,0.0000,0.0000,-0.0000,1999.0000,1068.0000,1500.0000,1997.0000
232347.1720,2.0000,1996.0000,1000.0000,1434.0000,-37.0000,-137.0000,14.0000,1509.0000,138.0000,7774.0000,0.4467,0.4826,0.7503,0.0677,103.9300,-87.0500,-108.1500,-16.2700,-2.8600,9.1800,0.0000,0.0000,-0.0000,1999.0000,1068.0000,1500.0000,1997.0000
232364.1440,2.0000,1996.0000,1000.0000,1434.0000,7.0000,-133.0000,-8.0000,1616.0000,142.0000,8246.0000,0.4627,0.4822,0.7415,0.0605,103.5300,-87.0900,-108.0200,-16.3400,-2.6400,9.7500,0.0000,0.0000,-0.0000,1999.0000,1068.0000,1500.0000,1997.0000
232380.8800,2.0000,1996.0000,1000.0000,1608.0000,51.0000,-113.0000,-31.0000,1573.0000,93.0000,8438.0000,0.4738,0.4820,0.7354,0.0481,103.1300,-87.1300,-107.8900,-16.3800,-2.3800,10.3200,0.0000,0.0000,-0.0000,1229.0000,1058.0000,1500.0000,1999.0000
232397.6570,2.0000,1998.0000,1329.0000,2000.0000,87.0000,-105.0000,-50.0000,1315.0000,23.0000,8007.0000,0.4807,0.4823,0.7317,0.0306,103.1300,-87.1300,-107.8900,-16.3800,-2.3800,10.3200,0.0000,0.0000,-0.0000,1229.0000,1058.0000,1500.0000,1999.0000
232414.6710,2.0000,1998.0000,1329.0000,2000.0000,96.0000,-93.0000,-63.0000,1373.0000,-87.0000,7654.0000,0.4847,0.4823,0.7296,0.0095,102.7400,-87.1600,-107.7500,-16.4000,-2.1000,10.8700,0.0000,0.0000,-0.0000,1229.0000,1058.0000,1500.0000,1999.0000
232431.4660,2.0000,1998.0000,1329.0000,2000.0000,55.0000,-96.0000,-68.0000,1433.0000,61.0000,6508.0000,0.4890,0.4800,0.7283,-0.0096,102.3700,-87.1800,-107.6000,-16.4700,-1.8200,11.3800,0.0000,0.0000,-0.0000,1229.0000,1058.0000,1500.0000,1999.0000
232448.4950,2.0000,1998.0000,1329.0000,2000.0000,-3.0000,-112.0000,-63.0000,1220.0000,-90.0000,5752.0000,0.4984,0.4735,0.7258,-0.0240,102.0300,-87.2000,-107.4600,-16.6300,-1.6100,11.8200,0.0000,0.0000,-0.0000,1229.0000,1058.0000,1500.0000,1999.0000
232465.3090,2.0000,1998.0000,1329.0000,2000.0000,-50.0000,-136.0000,-55.0000,1046.0000,-292.0000,5733.0000,0.5135,0.4634,0.7214,-0.0331,101.5800,-87.2200,-107.3300,-17.0700,-1.4200,12.1800,0.0000,0.0000,-0.0000,1229.0000,1058.0000,1500.0000,1999.0000
232481.7750,2.0000,1998.0000,1329.0000,2000.0000,-83.0000,-148.0000,-44.0000,880.0000,-342.0000,5901.0000,0.5327,0.4513,0.7149,-0.0384,101.1300,-87.2300,-107.1900,-17.4800,-1.2200,12.5400,0.0000,0.0000,-0.0000,1229.0000,1058.0000,1500.0000,1999.0000
232498.6880,2.0000,1998.0000,1391.0000,2000.0000,-97.0000,-159.0000,-37.0000,953.0000,-569.0000,7076.0000,0.5550,0.4380,0.7059,-0.0420,101.1300,-87.2300,-107.1900,-17.4800,-1.2200,12.5400,0.0000,0.0000,-0.0000,1169.0000,1061.0000,1500.0000,1999.0000
232515.4900,2.0000,1998.0000,1392.0000,2000.0000,-103.0000,-165.0000,-29.0000,1203.0000,-718.0000,8211.0000,0.5777,0.4246,0.6957,-0.0441,100.6900,-87.2400,-107.0500,-17.7500,-0.9800,12.9200,0.0000,0.0000,-0.0000,1169.0000,1061.0000,1500.0000,1999.0000
232532.2530,2.0000,1998.0000,1392.0000,2000.0000,-108.0000,-167.0000,-21.0000,1292.0000,-698.0000,8910.0000,0.6008,0.4112,0.6841,-0.0452,100.2800,-87.2500,-106.9000,-17.8600,-0.6900,13.3500,0.0000,0.0000,-0.0000,1169.0000,1061.0000,1500.0000,1999.0000
232549.1550,2.0000,1998.0000,1392.0000,2000.0000,-112.0000,-162.0000,-11.0000,1219.0000,-770.0000,9449.0000,0.6240,0.3975,0.6713,-0.0447,99.9000,-87.2500,-106.7300,-17.8300,-0.3900,13.7700,0.0000,0.0000,-0.0000,1169.0000,1061.0000,1500.0000,1999.0000
232566.0180,2.0000,1998.0000,1392.0000,2000.0000,-115.0000,-163.0000,-3.0000,1142.0000,-740.0000,9538.0000,0.6463,0.3843,0.6578,-0.0427,99.4200,-87.2500,-106.5700,-17.8300,-0.0500,14.1400,0.0000,0.0000,-0.0000,1169.0000,1061.0000,1500.0000,1999.0000
232582.6810,2.0000,1998.0000,1392.0000,2000.0000,-113.0000,-153.0000,8.0000,1413.0000,-778.0000,9909.0000,0.6678,0.3718,0.6437,-0.0396,98.9500,-87.2400,-106.4000,-17.7500,0.2500,14.4700,0.0000,0.0000,-0.0000,1169.0000,1061.0000,1500.0000,1999.0000
232599.5030,2.0000,1996.0000,1077.0000,1959.0000,-116.0000,-151.0000,15.0000,1404.0000,-661.0000,9787.0000,0.6882,0.3599,0.6290,-0.0352,98.9500,-87.2400,-106.4000,-17.7500,0.2500,14.4700,0.0000,0.0000,-0.0000,1481.0000,1059.0000,1500.0000,1997.0000
232616.3720,2.0000,1996.0000,1077.0000,1959.0000,-118.0000,-152.0000,24.0000,1275.0000,-728.0000,10212.0000,0.7083,0.3484,0.6133,-0.0296,98.5300,-87.2300,-106.2200,-17.6100,0.5200,14.7500,0.0000,0.0000,-0.0000,1481.0000,1059.0000,1500.0000,1997.0000
232633.0860,2.0000,1996.0000,1077.0000,1959.0000,-110.0000,-152.0000,27.0000,1276.0000,-668.0000,10109.0000,0.7276,0.3374,0.5968,-0.0236,98.1200,-87.2200,-106.0300,-17.4300,0.7800,14.9500,0.0000,0.0000,-0.0000,1481.0000,1059.0000,1500.0000,1997.0000
232649.7470,2.0000,1996.0000,1077.0000,1959.0000,-93.0000,-155.0000,28.0000,1243.0000,-556.0000,10135.0000,0.7457,0.3279,0.5798,-0.0185,97.7400,-87.2000,-105.8500,-17.2200,0.9900,15.0700,0.0000,0.0000,-0.0000,1481.0000,1059.0000,1500.0000,1997.0000
232666.6720,2.0000,1996.0000,1077.0000,1959.0000,-72.0000,-160.0000,25.0000,1143.0000,-482.0000,10364.0000,0.7629,0.3201,0.5615,-0.0154,97.2900,-87.2000,-105.6900,-17.0100,1.1300,15.1200,0.0000,0.0000,-0.0000,1481.0000,1059.0000,1500.0000,1997.0000
232683.5510,2.0000,1996.0000,1077.0000,1959.0000,-60.0000,-159.0000,20.0000,1207.0000,-340.0000,10626.0000,0.7790,0.3137,0.5427,-0.0144,96.8500,-87.1900,-105.5300,-16.8000,1.2300,15.0800,0.0000,0.0000,-0.0000,1481.0000,1059.0000,1500.0000,1997.0000
232700.5900,2.0000,1998.0000,1431.0000,2000.0000,-55.0000,-159.0000,15.0000,1261.0000,-202.0000,10668.0000,0.7943,0.3076,0.5237,-0.0145,96.8500,-87.1900,-105.5300,-16.8000,1.2300,15.0800,0.0000,0.0000,-0.0000,1132.0000,1063.0000,1500.0000,1999.0000
232717.4100,2.0000,1998.0000,1431.0000,2000.0000,-57.0000,-162.0000,10.0000,1169.0000,-136.0000,10921.0000,0.8090,0.3012,0.5044,-0.0156,96.4400,-87.1800,-105.3900,-16.5900,1.3100,14.9700,0.0000,0.0000,-0.0000,1132.0000,1063.0000,1500.0000,1999.0000
232734.0950,2.0000,1998.0000,1431.0000,2000.0000,-67.0000,-156.0000,6.0000,1264.0000,-146.0000,11627.0000,0.8232,0.2938,0.4855,-0.0168,96.0700,-87.1700,-105.2500,-16.3800,1.3800,14.7800,0.0000,0.0000,-0.0000,1132.0000,1063.0000,1500.0000,1999.0000
232750.9150,2.0000,1998.0000,1431.0000,2000.0000,-88.0000,-137.0000,5.0000,1371.0000,-327.0000,12756.0000,0.8368,0.2841,0.4677,-0.0166,95.7100,-87.1600,-105.1100,-16.1300,1.4800,14.5100,0.0000,0.0000,-0.0000,1132.0000,1063.0000,1500.0000,1999.0000
232767.7070,2.0000,1998.0000,1431.0000,2000.0000,-109.0000,-112.0000,8.0000,1330.0000,-387.0000,12782.0000,0.8492,0.2717,0.4526,-0.0137,95.2800,-87.1500,-105.0000,-15.7300,1.7500,14.1500,0.0000,0.0000,-0.0000,1132.0000,1063.0000,1500.0000,1999.0000
232784.5890,2.0000,1998.0000,1431.0000,2000.0000,-129.0000,-104.0000,8.0000,1184.0000,-393.0000,12407.0000,0.8609,0.2567,0.4391,-0.0086,94.8700,-87.1400,-104.9000,-15.3700,1.9700,13.7200,0.0000,0.0000,-0.0000,1132.0000,1063.0000,1500.0000,1999.0000
232801.6260,2.0000,1998.0000,1431.0000,2000.0000,-140.0000,-97.0000,6.0000,1162.0000,-337.0000,11887.0000,0.8723,0.2396,0.4262,-0.0026,94.8700,-87.1400,-104.9000,-15.3700,1.9700,13.7200,0.0000,0.0000,-0.0000,1132.0000,1063.0000,1500.0000,1999.0000
232818.4760,2.0000,1998.0000,1301.0000,2000.0000,-147.0000,-89.0000,6.0000,1311.0000,-372.0000,11862.0000,0.8827,0.2214,0.4145,0.0042,94.5000,-87.1200,-104.8000,-15.0700,2.1200,13.2600,0.0000,0.0000,-0.0000,1255.0000,1057.0000,1500.0000,1999.0000
232835.3250,2.0000,1998.0000,1301.0000,2000.0000,-148.0000,-89.0000,6.0000,1187.0000,-436.0000,11446.0000,0.8928,0.2024,0.4023,0.0113,94.1600,-87.1000,-104.7100,-14.7600,2.2200,12.7700,0.0000,0.0000,-0.0000,1255.0000,1057.0000,1500.0000,1999.0000
232852.1320,2.0000,1998.0000,1301.0000,2000.0000,-134.0000,-96.0000,4.0000,1044.0000,-281.0000,10787.0000,0.9021,0.1842,0.3898,0.0176,93.8500,-87.0800,-104.6200,-14.4800,2.2800,12.2600,0.0000,0.0000,-0.0000,1255.0000,1057.0000,1500.0000,1999.0000
232869.1640,2.0000,1998.0000,1301.0000,2000.0000,-119.0000,-97.0000,1.0000,957.0000,-169.0000,10218.0000,0.9109,0.1675,0.3765,0.0225,93.4700,-87.0400,-104.5400,-14.3400,2.6100,11.7700,0.0000,0.0000,-0.0000,1255.0000,1057.0000,1500.0000,1999.0000
232885.8840,2.0000,1998.0000,1301.0000,2000.0000,-110.0000,-104.0000,-1.0000,874.0000,-292.0000,10177.0000,0.9189,0.1527,0.3627,0.0263,93.0900,-86.9900,-104.4600,-14.2300,2.8800,11.2400,0.0000,0.0000,-0.0000,1255.0000,1057.0000,1500.0000,1999.0000
232902.9240,2.0000,1998.0000,1301.0000,2000.0000,-108.0000,-108.0000,-2.0000,794.0000,-269.0000,9895.0000,0.9269,0.1381,0.3478,0.0292,93.0900,-86.9900,-104.4600,-14.2300,2.8800,11.2400,0.0000,0.0000,-0.0000,1255.0000,1057.0000,1500.0000,1999.0000
232919.9350,2.0000,1998.0000,1271.0000,2000.0000,-105.0000,-121.0000,-2.0000,711.0000,-246.0000,9654.0000,0.9347,0.1238,0.3316,0.0319,92.7400,-86.9400,-104.3900,-14.1500,3.0900,10.7000,0.0000,0.0000,-0.0000,1391.0000,1058.0000,1500.0000,1999.0000
232936.9150,2.0000,1998.0000,1166.0000,2000.0000,-100.0000,-136.0000,-2.0000,741.0000,-331.0000,10023.0000,0.9427,0.1100,0.3132,0.0337,92.4100,-86.8900,-104.3400,-14.0900,3.2400,10.1400,0.0000,0.0000,-0.0000,1391.0000,1058.0000,1500.0000,1999.0000
232953.6630,2.0000,1998.0000,1166.0000,2000.0000,-93.0000,-145.0000,-3.0000,804.0000,-344.0000,10221.0000,0.9504,0.0975,0.2933,0.0346,92.0500,-86.7900,-104.2700,-13.6200,3.8900,9.5400,0.0000,0.0000,-0.0000,1391.0000,1058.0000,1500.0000,1999.0000
232970.7580,2.0000,1998.0000,1166.0000,2000.0000,-79.0000,-152.0000,-3.0000,923.0000,-511.0000,11103.0000,0.9578,0.0862,0.2720,0.0349,91.7200,-86.6700,-104.2200,-13.1500,4.4700,8.9000,0.0000,0.0000,-0.0000,1391.0000,1058.0000,1500.0000,1999.0000
232987.7140,2.0000,1998.0000,1166.0000,2000.0000,-68.0000,-156.0000,-4.0000,913.0000,-502.0000,11406.0000,0.9647,0.0765,0.2497,0.0343,91.4100,-86.5600,-104.1800,-12.7100,4.9900,8.1600,0.0000,0.0000,-0.0000,1391.0000,1058.0000,1500.0000,1999.0000
233004.7410,2.0000,1998.0000,1166.0000,2000.0000,-71.0000,-159.0000,-3.0000,970.0000,-404.0000,11850.0000,0.9710,0.0676,0.2268,0.0336,91.4100,-86.5600,-104.1800,-12.7100,4.9900,8.1600,0.0000,0.0000,-0.0000,1391.0000,1058.0000,1500.0000,1999.0000
233021.4520,2.0000,1998.0000,1166.0000,2000.0000,-74.0000,-150.0000,-1.0000,1139.0000,-545.0000,12685.0000,0.9765,0.0582,0.2047,0.0331,91.1300,-86.4400,-104.1500,-12.3200,5.4200,7.3600,0.0000,0.0000,-0.0000,1391.0000,1058.0000,1500.0000,1999.0000
233038.3780,2.0000,1998.0000,1383.0000,2000.0000,-73.0000,-146.0000,1.0000,1152.0000,-516.0000,12814.0000,0.9814,0.0485,0.1831,0.0327,90.8700,-86.3100,-104.1500,-11.9600,5.8000,6.4500,0.0000,0.0000,-0.0000,1176.0000,1060.0000,1500.0000,1999.0000
233055.0460,2.0000,1998.0000,1384.0000,2000.0000,-74.0000,-138.0000,1.0000,1137.0000,-526.0000,12791.0000,0.9854,0.0390,0.1627,0.0322,90.6000,-86.1300,-104.1500,-11.2900,6.4300,5.4900,0.0000,0.0000,-0.0000,1176.0000,1060.0000,1500.0000,1999.0000
233072.0150,2.0000,1998.0000,1384.0000,2000.0000,-78.0000,-132.0000,4.0000,1092.0000,-525.0000,12832.0000,0.9888,0.0290,0.1426,0.0320,90.3500,-85.9500,-104.1700,-10.7200,6.9700,4.5100,0.0000,0.0000,-0.0000,1176.0000,1060.0000,1500.0000,1999.0000
233089.0660,2.0000,1998.0000,1384.0000,2000.0000,-90.0000,-118.0000,9.0000,1243.0000,-603.0000,13176.0000,0.9916,0.0175,0.1238,0.0326,90.1200,-85.7600,-104.2100,-10.2400,7.4200,3.4900,0.0000,0.0000,-0.0000,1176.0000,1060.0000,1500.0000,1999.0000
233106.1880,2.0000,1998.0000,1384.0000,2000.0000,-99.0000,-110.0000,14.0000,1290.0000,-566.0000,12789.0000,0.9937,0.0043,0.1066,0.0341,90.1200,-85.7600,-104.2100,-10.2400,7.4200,3.4900,0.0000,0.0000,-0.0000,1176.0000,1060.0000,1500.0000,1999.0000
233122.9310,2.0000,1998.0000,1384.0000,2000.0000,-107.0000,-103.0000,17.0000,1275.0000,-477.0000,12124.0000,0.9952,-0.0100,0.0904,0.0363,89.9200,-85.5800,-104.2600,-9.8200,7.7900,2.4500,0.0000,0.0000,-0.0000,1176.0000,1060.0000,1500.0000,1999.0000
233139.5850,2.0000,1998.0000,1090.0000,1970.0000,-112.0000,-96.0000,21.0000,1233.0000,-415.0000,11513.0000,0.9961,-0.0250,0.0755,0.0390,89.7300,-85.3900,-104.3400,-9.5000,8.0700,1.4800,0.0000,0.0000,-0.0000,1469.0000,1060.0000,1500.0000,1999.0000
233156.3030,2.0000,1998.0000,1090.0000,1970.0000,-112.0000,-101.0000,24.0000,1160.0000,-434.0000,11159.0000,0.9964,-0.0404,0.0609,0.0423,89.5200,-85.1600,-104.4300,-9.0200,8.3500,0.5500,0.0000,0.0000,-0.0000,1469.0000,1060.0000,1500.0000,1999.0000
233173.1160,2.0000,1998.0000,1090.0000,1970.0000,-106.0000,-104.0000,27.0000,1060.0000,-458.0000,10566.0000,0.9964,-0.0556,0.0452,0.0460,89.3400,-84.9400,-104.5400,-8.6200,8.5700,-0.3100,0.0000,0.0000,-0.0000,1469.0000,1060.0000,1500.0000,1999.0000
233189.9540,2.0000,1998.0000,1090.0000,1970.0000,-88.0000,-117.0000,26.0000,936.0000,-453.0000,10312.0000,0.9960,-0.0688,0.0288,0.0497,89.1700,-84.7200,-104.6700,-8.3000,8.7400,-1.1300,0.0000,0.0000,-0.0000,1469.0000,1060.0000,1500.0000,1999.0000
233207.0320,2.0000,1998.0000,1090.0000,1970.0000,-69.0000,-133.0000,23.0000,944.0000,-441.0000,10603.0000,0.9954,-0.0795,0.0099,0.0532,89.1700,-84.7200,-104.6700,-8.3000,8.7400,-1.1300,0.0000,0.0000,-0.0000,1469.0000,1060.0000,1500.0000,1999.0000
233223.9480,2.0000,1998.0000,1090.0000,1970.0000,-63.0000,-140.0000,20.0000,1115.0000,-497.0000,11364.0000,0.9945,-0.0881,-0.0104,0.0563,89.0200,-84.5000,-104.8200,-8.0600,8.8600,-1.9400,0.0000,0.0000,-0.0000,1469.0000,1060.0000,1500.0000,1999.0000
233240.8840,2.0000,1998.0000,1106.0000,1988.0000,-57.0000,-144.0000,16.0000,1208.0000,-534.0000,12143.0000,0.9931,-0.0959,-0.0314,0.0589,88.8800,-84.3000,-104.9800,-7.8500,8.9300,-2.8000,0.0000,0.0000,-0.0000,1452.0000,1059.0000,1500.0000,1999.0000
233257.9020,2.0000,1998.0000,1106.0000,1988.0000,-51.0000,-144.0000,14.0000,1208.0000,-564.0000,12280.0000,0.9914,-0.1027,-0.0528,0.0611,88.7500,-84.0500,-105.1500,-7.3400,9.0800,-3.7500,0.0000,0.0000,-0.0000,1452.0000,1059.0000,1500.0000,1999.0000
233274.8530,2.0000,1998.0000,1106.0000,1988.0000,-46.0000,-137.0000,13.0000,1324.0000,-434.0000,12347.0000,0.9893,-0.1087,-0.0736,0.0630,88.6400,-83.8100,-105.3400,-6.9300,9.1800,-4.7000,0.0000,0.0000,-0.0000,1452.0000,1059.0000,1500.0000,1999.0000
233291.8350,2.0000,1998.0000,1106.0000,1988.0000,-52.0000,-131.0000,11.0000,1320.0000,-429.0000,12363.0000,0.9868,-0.1150,-0.0937,0.0646,88.5400,-83.5700,-105.5500,-6.6000,9.2400,-5.6700,0.0000,0.0000,-0.0000,1452.0000,1059.0000,1500.0000,1999.0000
233308.8960,2.0000,1998.0000,1106.0000,1988.0000,-47.0000,-133.0000,11.0000,1292.0000,-405.0000,11950.0000,0.9839,-0.1214,-0.1135,0.0660,88.5400,-83.5700,-105.5500,-6.6000,9.2400,-5.6700,0.0000,0.0000,-0.0000,1452.0000,1059.0000,1500.0000,1999.0000
233325.5070,2.0000,1998.0000,1110.0000,1990.0000,-51.0000,-123.0000,11.0000,1320.0000,-465.0000,12056.0000,0.9807,-0.1278,-0.1316,0.0672,88.4500,-83.3500,-105.7800,-6.3400,9.2700,-6.6000,0.0000,0.0000,-0.0000,1447.0000,1060.0000,1500.0000,1999.0000
233342.5660,2.0000,1998.0000,1112.0000,1992.0000,-54.0000,-119.0000,9.0000,1335.0000,-413.0000,12149.0000,0.9772,-0.1346,-0.1493,0.0682,88.3800,-83.1400,-106.0300,-6.1000,9.2800,-7.4800,0.0000,0.0000,-0.0000,1447.0000,1060.0000,1500.0000,1999.0000
233359.6180,2.0000,1998.0000,1112.0000,1992.0000,-54.0000,-118.0000,8.0000,1280.0000,-444.0000,11771.0000,0.9733,-0.1416,-0.1669,0.0689,88.3500,-82.8900,-106.3000,-5.4200,9.1800,-8.3600,0.0000,0.0000,-0.0000,1447.0000,1060.0000,1500.0000,1999.0000
233376.2910,2.0000,1998.0000,1112.0000,1992.0000,-53.0000,-120.0000,7.0000,1255.0000,-544.0000,11586.0000,0.9692,-0.1485,-0.1838,0.0696,88.3300,-82.6600,-106.5700,-4.8400,9.0700,-9.1900,0.0000,0.0000,-0.0000,1447.0000,1060.0000,1500.0000,1999.0000
233393.4670,2.0000,1998.0000,1112.0000,1992.0000,-52.0000,-117.0000,7.0000,1303.0000,-512.0000,11354.0000,0.9646,-0.1556,-0.2011,0.0702,88.3300,-82.4400,-106.8700,-4.3500,8.9600,-9.9700,0.0000,0.0000,-0.0000,1447.0000,1060.0000,1500.0000,1999.0000
233410.3130,2.0000,1998.0000,1112.0000,1992.0000,-51.0000,-123.0000,8.0000,1341.0000,-584.0000,11607.0000,0.9598,-0.1622,-0.2179,0.0710,88.3300,-82.4400,-106.8700,-4.3500,8.9600,-9.9700,0.0000,0.0000,-0.0000,1447.0000,1060.0000,1500.0000,1999.0000
233426.9830,2.0000,1998.0000,1805.0000,1493.0000,-55.0000,-120.0000,7.0000,1309.0000,-490.0000,10950.0000,0.9546,-0.1687,-0.2346,0.0718,88.3400,-82.2400,-107.1700,-3.9600,8.8500,-10.7300,0.0000,0.0000,-0.0000,1348.0000,1665.0000,1500.0000,1999.0000
233443.9920,2.0000,1998.0000,1814.0000,1488.0000,-56.0000,-119.0000,9.0000,1296.0000,-392.0000,10696.0000,0.9490,-0.1757,-0.2516,0.0727,88.3600,-82.0500,-107.4900,-3.6400,8.7300,-11.4400,0.0000,0.0000,-0.0000,1348.0000,1665.0000,1500.0000,1999.0000
233460.6870,2.0000,1998.0000,1814.0000,1488.0000,-65.0000,-107.0000,10.0000,1419.0000,-374.0000,10820.0000,0.9431,-0.1834,-0.2675,0.0736,88.3800,-81.8800,-107.8200,-3.3900,8.6000,-12.0900,0.0000,0.0000,-0.0000,1348.0000,1665.0000,1500.0000,1999.0000
233477.5950,2.0000,1998.0000,1814.0000,1488.0000,-65.0000,-81.0000,11.0000,1585.0000,-501.0000,11253.0000,0.9373,-0.1921,-0.2811,0.0739,88.4000,-81.7300,-108.1500,-3.2100,8.4600,-12.7200,0.0000,0.0000,-0.0000,1348.0000,1665.0000,1500.0000,1999.0000
233494.5110,2.0000,1998.0000,1814.0000,1488.0000,-74.0000,-54.0000,12.0000,1687.0000,-576.0000,11652.0000,0.9324,-0.2018,-0.2907,0.0734,88.4200,-81.5800,-108.5000,-3.0900,8.3000,-13.3800,0.0000,0.0000,-0.0000,1348.0000,1665.0000,1500.0000,1999.0000
233511.3160,2.0000,1998.0000,1814.0000,1488.0000,-100.0000,2.0000,14.0000,1521.0000,-454.0000,11313.0000,0.9287,-0.2142,-0.2941,0.0711,88.4200,-81.5800,-108.5000,-3.0900,8.3000,-13.3800,0.0000,0.0000,-0.0000,1348.0000,1665.0000,1500.0000,1999.0000
233528.0370,2.0000,1998.0000,1814.0000,1488.0000,-136.0000,57.0000,16.0000,1441.0000,-479.0000,10470.0000,0.9261,-0.2313,-0.2907,0.0661,88.4400,-81.4500,-108.8400,-3.0600,8.1000,-14.0300,0.0000,0.0000,-0.0000,1348.0000,1665.0000,1500.0000,1999.0000
233544.7680,2.0000,1998.0000,1810.0000,1340.0000,-173.0000,109.0000,19.0000,1365.0000,-425.0000,8196.0000,0.9240,-0.2541,-0.2799,0.0582,88.4400,-81.3200,-109.1900,-3.0800,7.8900,-14.6000,0.0000,0.0000,-0.0000,1424.0000,1737.0000,1500.0000,1999.0000
233561.5830,2.0000,1998.0000,1810.0000,1340.0000,-196.0000,148.0000,21.0000,1456.0000,-414.0000,5438.0000,0.9217,-0.2812,-0.2630,0.0479,88.4500,-81.2000,-109.5400,-2.9600,7.7300,-14.9800,0.0000,0.0000,-0.0000,1424.0000,1737.0000,1500.0000,1999.0000
233578.3750,2.0000,1998.0000,1810.0000,1340.0000,-193.0000,181.0000,22.0000,1137.0000,-391.0000,2397.0000,0.9190,-0.3098,-0.2410,0.0359,88.4600,-81.0900,-109.8900,-2.6400,7.6900,-15.1200,0.0000,0.0000,-0.0000,1424.0000,1737.0000,1500.0000,1999.0000
233595.5220,2.0000,1998.0000,1810.0000,1340.0000,-170.0000,226.0000,23.0000,801.0000,-347.0000,-552.0000,0.9169,-0.3367,-0.2129,0.0225,88.4900,-81.0000,-110.2400,-2.1400,7.8500,-14.9600,0.0000,0.0000,-0.0000,1424.0000,1737.0000,1500.0000,1999.0000
233612.3530,2.0000,1998.0000,1810.0000,1340.0000,-146.0000,257.0000,20.0000,1127.0000,-85.0000,-3416.0000,0.9158,-0.3594,-0.1789,0.0077,88.4900,-81.0000,-110.2400,-2.1400,7.8500,-14.9600,0.0000,0.0000,-0.0000,1424.0000,1737.0000,1500.0000,1999.0000
233629.3190,2.0000,1998.0000,1810.0000,1340.0000,-122.0000,256.0000,18.0000,1442.0000,-61.0000,-6382.0000,0.9147,-0.3780,-0.1426,-0.0074,88.5300,-80.9100,-110.5500,-1.5600,8.1800,-14.5700,0.0000,0.0000,-0.0000,1424.0000,1737.0000,1500.0000,1999.0000
233646.2860,2.0000,1997.0000,1667.0000,1207.0000,-107.0000,229.0000,13.0000,1148.0000,193.0000,-8901.0000,0.9128,-0.3931,-0.1084,-0.0213,88.5800,-80.8200,-110.8200,-0.9400,8.6700,-13.9700,0.0000,0.0000,-0.0000,1565.0000,1732.0000,1500.0000,1998.0000
233663.2450,2.0000,1997.0000,1667.0000,1207.0000,-101.0000,173.0000,9.0000,1279.0000,337.0000,-9846.0000,0.9095,-0.4067,-0.0798,-0.0329,88.6400,-80.7300,-111.0300,-0.4200,9.3000,-13.2800,0.0000,0.0000,-0.0000,1565.0000,1732.0000,1500.0000,1998.0000
233680.1700,2.0000,1997.0000,1667.0000,1207.0000,-79.0000,119.0000,5.0000,684.0000,149.0000,-9550.0000,0.9054,-0.4184,-0.0597,-0.0414,88.7100,-80.6200,-111.1800,-0.0100,9.9400,-12.5300,0.0000,0.0000,-0.0000,1565.0000,1732.0000,1500.0000,1998.0000
233696.8840,2.0000,1997.0000,1667.0000,1207.0000,-40.0000,76.0000,-4.0000,454.0000,21.0000,-8495.0000,0.9026,-0.4254,-0.0471,-0.0472,88.7800,-80.5200,-111.3100,0.2400,10.5000,-11.8200,0.0000,0.0000,-0.0000,1565.0000,1732.0000,1500.0000,1998.0000
233713.9180,2.0000,1997.0000,1667.0000,1207.0000,-15.0000,32.0000,-9.0000,279.0000,-151.0000,-7147.0000,0.9013,-0.4283,-0.0410,-0.0512,88.7800,-80.5200,-111.3100,0.2400,10.5000,-11.8200,0.0000,0.0000,-0.0000,1565.0000,1732.0000,1500.0000,1998.0000
233730.6210,2.0000,1997.0000,1667.0000,1207.0000,9.0000,12.0000,-10.0000,912.0000,-193.0000,-5397.0000,0.9011,-0.4284,-0.0390,-0.0538,88.8400,-80.4100,-111.4000,0.4100,10.8800,-11.1300,0.0000,0.0000,-0.0000,1565.0000,1732.0000,1500.0000,1998.0000
233747.2490,2.0000,1997.0000,1667.0000,1207.0000,34.0000,6.0000,-12.0000,834.0000,-240.0000,-4270.0000,0.9025,-0.4254,-0.0388,-0.0554,88.9100,-80.3000,-111.4800,0.5700,11.0900,-10.5900,0.0000,0.0000,-0.0000,1565.0000,1732.0000,1500.0000,1998.0000
233763.9990,2.0000,2000.0000,2000.0000,1537.0000,51.0000,17.0000,-11.0000,778.0000,-93.0000,-3492.0000,0.9051,-0.4196,-0.0388,-0.0573,88.9800,-80.1900,-111.5500,0.7200,11.1600,-10.1800,0.0000,0.0000,-0.0000,1230.0000,1735.0000,1500.0000,2000.0000
233780.8400,2.0000,2000.0000,2000.0000,1537.0000,65.0000,30.0000,-5.0000,823.0000,-236.0000,-2904.0000,0.9085,-0.4120,-0.0372,-0.0597,89.0400,-80.0900,-111.6100,0.8400,11.1300,-9.7600,0.0000,0.0000,-0.0000,1230.0000,1735.0000,1500.0000,2000.0000
233797.9940,2.0000,2000.0000,2000.0000,1537.0000,50.0000,58.0000,-3.0000,889.0000,-218.0000,-2712.0000,0.9122,-0.4037,-0.0318,-0.0626,89.1000,-80.0000,-111.6600,0.9300,11.0700,-9.3500,0.0000,0.0000,-0.0000,1230.0000,1735.0000,1500.0000,2000.0000
233814.9860,2.0000,2000.0000,2000.0000,1537.0000,-25.0000,77.0000,6.0000,1540.0000,-169.0000,-2235.0000,0.9131,-0.4017,-0.0230,-0.0663,89.1000,-80.0000,-111.6600,0.9300,11.0700,-9.3500,0.0000,0.0000,-0.0000,1230.0000,1735.0000,1500.0000,2000.0000
233831.5160,2.0000,2000.0000,2000.0000,1537.0000,-104.0000,100.0000,13.0000,1333.0000,-170.0000,-2658.0000,0.9094,-0.4098,-0.0104,-0.0702,89.1600,-79.9200,-111.7100,1.0500,10.9900,-9.0000,0.0000,0.0000,-0.0000,1230.0000,1735.0000,1500.0000,2000.0000
233848.0880,2.0000,2000.0000,2000.0000,1537.0000,-166.0000,106.0000,21.0000,789.0000,-285.0000,-3525.0000,0.9012,-0.4269,0.0054,-0.0740,89.3200,-79.8200,-111.7700,1.5700,10.7000,-8.6300,0.0000,0.0000,-0.0000,1230.0000,1735.0000,1500.0000,2000.0000
233864.6840,2.0000,1998.0000,1814.0000,1334.0000,-210.0000,115.0000,28.0000,665.0000,-351.0000,-4474.0000,0.8892,-0.4504,0.0229,-0.0768,89.7800,-79.6700,-111.8600,3.0400,9.9400,-8.2200,0.0000,0.0000,-0.0000,1635.0000,1750.0000,1500.0000,1998.0000
233881.6240,2.0000,1997.0000,1615.0000,1119.0000,-252.0000,103.0000,30.0000,310.0000,-297.0000,-5124.0000,0.8730,-0.4796,0.0415,-0.0786,90.2400,-79.5400,-111.9400,4.2400,9.3600,-7.8200,0.0000,0.0000,-0.0000,1635.0000,1750.0000,1500.0000,1998.0000
233898.8330,2.0000,1997.0000,1615.0000,1119.0000,-262.0000,98.0000,28.0000,737.0000,-100.0000,-4565.0000,0.8533,-0.5118,0.0597,-0.0799,90.6900,-79.4300,-112.0100,5.2500,8.8600,-7.4000,0.0000,0.0000,-0.0000,1635.0000,1750.0000,1500.0000,1998.0000
233915.7070,2.0000,1997.0000,1615.0000,1119.0000,-237.0000,106.0000,26.0000,965.0000,-130.0000,-3965.0000,0.8330,-0.5418,0.0770,-0.0814,90.6900,-79.4300,-112.0100,5.2500,8.8600,-7.4000,0.0000,0.0000,-0.0000,1635.0000,1750.0000,1500.0000,1998.0000
233932.4860,2.0000,1997.0000,1615.0000,1119.0000,-151.0000,106.0000,21.0000,554.0000,-107.0000,-4107.0000,0.8160,-0.5640,0.0942,-0.0845,91.1400,-79.3300,-112.0900,6.1400,8.3800,-7.0100,0.0000,0.0000,-0.0000,1635.0000,1750.0000,1500.0000,1998.0000
233949.4590,2.0000,1997.0000,1615.0000,1119.0000,-50.0000,122.0000,13.0000,863.0000,-42.0000,-4098.0000,0.8063,-0.5741,0.1099,-0.0900,91.5900,-79.2400,-112.1500,6.9000,8.0300,-6.6500,0.0000,0.0000,-0.0000,1635.0000,1750.0000,1500.0000,1998.0000
233966.3560,2.0000,1997.0000,1760.0000,1270.0000,26.0000,131.0000,2.0000,879.0000,59.0000,-5030.0000,0.8038,-0.5729,0.1258,-0.0995,92.0800,-79.1400,-112.2200,7.6200,7.8700,-6.3000,0.0000,0.0000,-0.0000,1482.0000,1747.0000,1500.0000,1999.0000
233983.2990,2.0000,1998.0000,1762.0000,1272.0000,75.0000,115.0000,-11.0000,599.0000,166.0000,-6015.0000,0.8060,-0.5650,0.1379,-0.1103,92.5400,-79.0500,-112.2900,8.1700,7.8100,-5.9600,0.0000,0.0000,-0.0000,1482.0000,1747.0000,1500.0000,1999.0000
234000.4380,2.0000,1998.0000,1762.0000,1272.0000,81.0000,100.0000,-15.0000,923.0000,188.0000,-6193.0000,0.8102,-0.5537,0.1483,-0.1223,92.9800,-78.9600,-112.3600,8.5500,7.8300,-5.5800,0.0000,0.0000,-0.0000,1482.0000,1747.0000,1500.0000,1999.0000
234017.2660,2.0000,1998.0000,1762.0000,1272.0000,53.0000,84.0000,-15.0000,1073.0000,108.0000,-6084.0000,0.8133,-0.5444,0.1566,-0.1326,92.9800,-78.9600,-112.3600,8.5500,7.8300,-5.5800,0.0000,0.0000,-0.0000,1482.0000,1747.0000,1500.0000,1999.0000
234034.2850,2.0000,1998.0000,1762.0000,1272.0000,30.0000,63.0000,-14.0000,671.0000,-147.0000,-5928.0000,0.8148,-0.5385,0.1627,-0.1405,93.3900,-78.8700,-112.4300,8.8600,7.8500,-5.1900,0.0000,0.0000,-0.0000,1482.0000,1747.0000,1500.0000,1999.0000
234051.2870,2.0000,1998.0000,1762.0000,1272.0000,13.0000,43.0000,-11.0000,899.0000,-204.0000,-5322.0000,0.8148,-0.5350,0.1682,-0.1469,93.8100,-78.7800,-112.5000,9.1400,7.9200,-4.7900,0.0000,0.0000,-0.0000,1482.0000,1747.0000,1500.0000,1999.0000
234068.3560,2.0000,1998.0000,1762.0000,1272.0000,2.0000,27.0000,-6.0000,1099.0000,-470.0000,-4584.0000,0.8146,-0.5336,0.1710,-0.1502,94.2500,-78.6600,-112.5600,9.5000,8.0900,-4.4100,0.0000,0.0000,-0.0000,1482.0000,1747.0000,1500.0000,1999.0000
234085.1420,2.0000,2000.0000,2000.0000,1587.0000,-4.0000,34.0000,1.0000,872.0000,-518.0000,-3964.0000,0.8138,-0.5331,0.1742,-0.1523,94.6800,-78.5500,-112.6100,9.8500,8.1900,-4.0700,0.0000,0.0000,-0.0000,1171.0000,1744.0000,1500.0000,2000.0000
234102.3910,2.0000,2000.0000,2000.0000,1587.0000,-8.0000,38.0000,5.0000,1317.0000,-459.0000,-3081.0000,0.8124,-0.5332,0.1791,-0.1539,95.1000,-78.4400,-112.6600,10.1800,8.1800,-3.7500,0.0000,0.0000,-0.0000,1171.0000,1744.0000,1500.0000,2000.0000
234119.0680,2.0000,2000.0000,2000.0000,1587.0000,-36.0000,53.0000,11.0000,895.0000,-475.0000,-2775.0000,0.8102,-0.5344,0.1846,-0.1551,95.1000,-78.4400,-112.6600,10.1800,8.1800,-3.7500,0.0000,0.0000,-0.0000,1171.0000,1744.0000,1500.0000,2000.0000
234135.5830,2.0000,2000.0000,2000.0000,1587.0000,-98.0000,57.0000,19.0000,810.0000,-397.0000,-3035.0000,0.8038,-0.5407,0.1934,-0.1554,95.4800,-78.3400,-112.7100,10.4600,8.1300,-3.4500,0.0000,0.0000,-0.0000,1171.0000,1744.0000,1500.0000,2000.0000
234152.5070,2.0000,2000.0000,2000.0000,1587.0000,-178.0000,57.0000,26.0000,751.0000,-343.0000,-3584.0000,0.7913,-0.5554,0.2050,-0.1528,95.8800,-78.2300,-112.7400,10.7000,8.1600,-3.1400,0.0000,0.0000,-0.0000,1171.0000,1744.0000,1500.0000,2000.0000
234169.2090,2.0000,2000.0000,2000.0000,1587.0000,-234.0000,57.0000,36.0000,783.0000,-550.0000,-3825.0000,0.7734,-0.5771,0.2177,-0.1465,96.2900,-78.0900,-112.7800,10.9000,8.3800,-2.8300,0.0000,0.0000,-0.0000,1171.0000,1744.0000,1500.0000,2000.0000
234185.9900,2.0000,1997.0000,1744.0000,1256.0000,-279.0000,53.0000,39.0000,686.0000,-486.0000,-3736.0000,0.7499,-0.6040,0.2320,-0.1378,96.6800,-77.9500,-112.8000,11.0400,8.5900,-2.5700,0.0000,0.0000,-0.0000,1498.0000,1746.0000,1500.0000,1998.0000
234203.0110,2.0000,1997.0000,1744.0000,1256.0000,-305.0000,59.0000,40.0000,802.0000,-290.0000,-3303.0000,0.7217,-0.6338,0.2472,-0.1277,97.0500,-77.8100,-112.8300,11.1600,8.7500,-2.3100,0.0000,0.0000,-0.0000,1498.0000,1746.0000,1500.0000,1998.0000
234220.0720,2.0000,1997.0000,1744.0000,1256.0000,-289.0000,77.0000,37.0000,834.0000,-223.0000,-3047.0000,0.6909,-0.6630,0.2630,-0.1183,97.0500,-77.8100,-112.8300,11.1600,8.7500,-2.3100,0.0000,0.0000,-0.0000,1498.0000,1746.0000,1500.0000,1998.0000
234237.0810,2.0000,1997.0000,1744.0000,1256.0000,-232.0000,96.0000,31.0000,695.0000,-276.0000,-3062.0000,0.6619,-0.6868,0.2786,-0.1120,97.4100,-77.6900,-112.8400,11.2700,8.8500,-2.0700,0.0000,0.0000,-0.0000,1498.0000,1746.0000,1500.0000,1998.0000
234254.0570,2.0000,1997.0000,1744.0000,1256.0000,-165.0000,118.0000,22.0000,747.0000,-45.0000,-3270.0000,0.6378,-0.7031,0.2940,-0.1114,97.7700,-77.5400,-112.8500,11.3700,9.0500,-1.8400,0.0000,0.0000,-0.0000,1498.0000,1746.0000,1500.0000,1998.0000
234271.1560,2.0000,1997.0000,1365.0000,1000.0000,-106.0000,141.0000,10.0000,840.0000,172.0000,-4142.0000,0.6178,-0.7134,0.3096,-0.1169,98.1500,-77.3500,-112.8400,11.4800,9.4100,-1.6300,0.0000,0.0000,-0.0000,1907.0000,1754.0000,1500.0000,1998.0000
234287.7540,2.0000,1997.0000,1347.0000,1000.0000,-66.0000,141.0000,-1.0000,995.0000,511.0000,-5509.0000,0.6027,-0.7186,0.3230,-0.1266,98.5000,-77.1700,-112.8400,11.4900,9.8100,-1.4600,0.0000,0.0000,-0.0000,1907.0000,1754.0000,1500.0000,1998.0000
234304.8570,2.0000,1997.0000,1347.0000,1000.0000,-29.0000,134.0000,-8.0000,1352.0000,293.0000,-6242.0000,0.5907,-0.7207,0.3352,-0.1393,98.8400,-76.9900,-112.8400,11.4100,10.2600,-1.3700,0.0000,0.0000,-0.0000,1907.0000,1754.0000,1500.0000,1998.0000
234321.8900,2.0000,1997.0000,1347.0000,1000.0000,37.0000,110.0000,-12.0000,867.0000,-221.0000,-7329.0000,0.5844,-0.7188,0.3442,-0.1530,98.8400,-76.9900,-112.8400,11.4100,10.2600,-1.3700,0.0000,0.0000,-0.0000,1907.0000,1754.0000,1500.0000,1998.0000
234338.6800,2.0000,1997.0000,1347.0000,1000.0000,124.0000,82.0000,-17.0000,561.0000,-346.0000,-8188.0000,0.5874,-0.7108,0.3485,-0.1680,99.1500,-76.8100,-112.8400,11.2600,10.7000,-1.3600,0.0000,0.0000,-0.0000,1907.0000,1754.0000,1500.0000,1998.0000
234355.4790,2.0000,1997.0000,1347.0000,1000.0000,213.0000,32.0000,-26.0000,535.0000,-146.0000,-7825.0000,0.6018,-0.6956,0.3463,-0.1843,99.4800,-76.6000,-112.8400,11.0100,11.2400,-1.4300,0.0000,0.0000,-0.0000,1907.0000,1754.0000,1500.0000,1998.0000
234372.5190,2.0000,1998.0000,1828.0000,1352.0000,282.0000,-8.0000,-29.0000,201.0000,-187.0000,-6864.0000,0.6263,-0.6741,0.3366,-0.2001,99.8100,-76.3600,-112.8500,10.7600,11.8300,-1.4400,0.0000,0.0000,-0.0000,1409.0000,1740.0000,1500.0000,1999.0000
234389.1850,2.0000,1998.0000,1828.0000,1352.0000,315.0000,-30.0000,-25.0000,429.0000,-360.0000,-4972.0000,0.6554,-0.6483,0.3225,-0.2147,100.1200,-76.1100,-112.8600,10.5700,12.2400,-1.3500,0.0000,0.0000,-0.0000,1409.0000,1740.0000,1500.0000,1999.0000
234406.3060,2.0000,1998.0000,1828.0000,1352.0000,302.0000,-32.0000,-13.0000,240.0000,-427.0000,-3343.0000,0.6861,-0.6188,0.3069,-0.2283,100.4100,-75.8800,-112.8600,10.5300,12.4600,-1.1600,0.0000,0.0000,-0.0000,1409.0000,1740.0000,1500.0000,1999.0000
234423.0260,2.0000,1998.0000,1828.0000,1352.0000,228.0000,-9.0000,5.0000,712.0000,-661.0000,-1778.0000,0.7105,-0.5928,0.2950,-0.2382,100.4100,-75.8800,-112.8600,10.5300,12.4600,-1.1600,0.0000,0.0000,-0.0000,1409.0000,1740.0000,1500.0000,1999.0000
234439.9550,2.0000,1998.0000,1828.0000,1352.0000,142.0000,27.0000,25.0000,881.0000,-887.0000,-756.0000,0.7267,-0.5720,0.2905,-0.2457,100.6900,-75.6500,-112.8500,10.6200,12.5200,-0.8000,0.0000,0.0000,-0.0000,1409.0000,1740.0000,1500.0000,1999.0000
234456.9890,2.0000,1998.0000,1828.0000,1352.0000,77.0000,59.0000,49.0000,1453.0000,-1143.0000,-559.0000,0.7352,-0.5568,0.2947,-0.2502,100.9700,-75.4100,-112.8100,10.7600,12.6300,-0.4300,0.0000,0.0000,-0.0000,1409.0000,1740.0000,1500.0000,1999.0000
234473.7390,2.0000,1999.0000,1923.0000,1469.0000,25.0000,97.0000,74.0000,1418.0000,-1151.0000,-1250.0000,0.7381,-0.5457,0.3064,-0.2521,101.2800,-75.1100,-112.7500,10.8500,12.9400,-0.0500,0.0000,0.0000,-0.0000,1302.0000,1729.0000,1500.0000,2000.0000
234490.7390,2.0000,2000.0000,1924.0000,1470.0000,-15.0000,127.0000,93.0000,1305.0000,-1078.0000,-2620.0000,0.7363,-0.5370,0.3254,-0.2523,101.5700,-74.8300,-112.6700,10.8500,13.2500,0.2600,0.0000,0.0000,-0.0000,1302.0000,1729.0000,1500.0000,2000.0000
234508.0190,2.0000,2000.0000,1924.0000,1470.0000,-48.0000,145.0000,106.0000,1325.0000,-881.0000,-4257.0000,0.7306,-0.5303,0.3498,-0.2504,101.8400,-74.5700,-112.5800,10.7100,13.6000,0.5800,0.0000,0.0000,-0.0000,1302.0000,1729.0000,1500.0000,2000.0000
234524.6790,2.0000,2000.0000,1924.0000,1470.0000,-105.0000,145.0000,115.0000,139.0000,-650.0000,-5377.0000,0.7212,-0.5273,0.3763,-0.2454,101.8400,-74.5700,-112.5800,10.7100,13.6000,0.5800,0.0000,0.0000,-0.0000,1302.0000,1729.0000,1500.0000,2000.0000
234541.7450,2.0000,2000.0000,1924.0000,1470.0000,-151.0000,121.0000,120.0000,260.0000,-213.0000,-6565.0000,0.7075,-0.5298,0.4041,-0.2353,102.0900,-74.3100,-112.4900,10.4000,13.9200,0.8000,0.0000,0.0000,-0.0000,1302.0000,1729.0000,1500.0000,2000.0000
234558.7520,2.0000,2000.0000,1924.0000,1470.0000,-192.0000,96.0000,118.0000,881.0000,-32.0000,-7290.0000,0.6913,-0.5371,0.4303,-0.2201,102.3300,-74.0200,-112.4000,9.9300,14.3300,0.9900,0.0000,0.0000,-0.0000,1302.0000,1729.0000,1500.0000,2000.0000
234575.5810,2.0000,2000.0000,1924.0000,1470.0000,-221.0000,62.0000,110.0000,39.0000,49.0000,-6708.0000,0.6736,-0.5486,0.4529,-0.2004,102.5800,-73.6700,-112.3200,9.4100,14.9800,1.1100,0.0000,0.0000,-0.0000,1302.0000,1729.0000,1500.0000,2000.0000
234592.4780,2.0000,2000.0000,1924.0000,1470.0000,-232.0000,41.0000,95.0000,45.0000,203.0000,-5532.0000,0.6547,-0.5631,0.4718,-0.1781,102.8100,-73.3300,-112.2400,8.9400,15.4400,1.2100,0.0000,0.0000,-0.0000,1302.0000,1729.0000,1500.0000,2000.0000
234609.2480,2.0000,1998.0000,1000.0000,1426.0000,-250.0000,46.0000,77.0000,668.0000,669.0000,-4004.0000,0.6338,-0.5788,0.4887,-0.1563,103.0100,-73.0200,-112.1700,8.6500,15.7600,1.3300,0.0000,0.0000,-0.0000,1999.0000,1076.0000,1500.0000,1999.0000
234625.9980,2.0000,1998.0000,1000.0000,1426.0000,-249.0000,44.0000,57.0000,919.0000,870.0000,-3190.0000,0.6108,-0.5962,0.5032,-0.1354,103.0100,-73.0200,-112.1700,8.6500,15.7600,1.3300,0.0000,0.0000,-0.0000,1999.0000,1076.0000,1500.0000,1999.0000
234642.6550,2.0000,1998.0000,1000.0000,1426.0000,-233.0000,52.0000,28.0000,878.0000,879.0000,-3006.0000,0.5867,-0.6138,0.5150,-0.1173,103.1900,-72.7100,-112.0900,8.5000,15.9700,1.6400,0.0000,0.0000,-0.0000,1999.0000,1076.0000,1500.0000,1999.0000
234659.4700,2.0000,1998.0000,1000.0000,1426.0000,-191.0000,44.0000,1.0000,899.0000,920.0000,-3456.0000,0.5640,-0.6304,0.5232,-0.1039,103.3900,-72.3600,-112.0000,8.3500,16.2700,1.9400,0.0000,0.0000,-0.0000,1999.0000,1076.0000,1500.0000,1999.0000
234676.1550,2.0000,1998.0000,1000.0000,1426.0000,-119.0000,22.0000,-28.0000,953.0000,904.0000,-3879.0000,0.5467,-0.6442,0.5263,-0.0956,103.5800,-71.9700,-111.9000,8.1300,16.7100,2.2100,0.0000,0.0000,-0.0000,1999.0000,1076.0000,1500.0000,1999.0000
234692.9930,2.0000,1998.0000,1030.0000,1906.0000,-33.0000,-1.0000,-56.0000,718.0000,684.0000,-4485.0000,0.5381,-0.6541,0.5233,-0.0936,103.7700,-71.5900,-111.7900,7.9000,17.1100,2.4100,0.0000,0.0000,-0.0000,1485.0000,1060.0000,1500.0000,1999.0000
234709.9320,2.0000,1998.0000,1074.0000,1954.0000,50.0000,-39.0000,-90.0000,348.0000,534.0000,-4593.0000,0.5396,-0.6596,0.5140,-0.0978,103.9300,-71.2300,-111.6800,7.6600,17.4500,2.5800,0.0000,0.0000,-0.0000,1485.0000,1060.0000,1500.0000,1999.0000
234726.6010,2.0000,1998.0000,1074.0000,1954.0000,113.0000,-79.0000,-117.0000,425.0000,392.0000,-3333.0000,0.5508,-0.6616,0.4977,-0.1061,103.9300,-71.2300,-111.6800,7.6600,17.4500,2.5800,0.0000,0.0000,-0.0000,1485.0000,1060.0000,1500.0000,1999.0000
234743.8910,2.0000,1998.0000,1074.0000,1954.0000,131.0000,-113.0000,-133.0000,525.0000,257.0000,-1783.0000,0.5686,-0.6617,0.4747,-0.1163,104.0800,-70.8900,-111.5600,7.4700,17.6900,2.8100,0.0000,0.0000,-0.0000,1485.0000,1060.0000,1500.0000,1999.0000
234760.9160,2.0000,1998.0000,1074.0000,1954.0000,96.0000,-158.0000,-134.0000,79.0000,-6.0000,-754.0000,0.5868,-0.6634,0.4479,-0.1227,104.2300,-70.5000,-111.4100,7.3000,17.9500,3.2700,0.0000,0.0000,-0.0000,1485.0000,1060.0000,1500.0000,1999.0000
234777.8460,2.0000,1998.0000,1074.0000,1954.0000,67.0000,-206.0000,-122.0000,471.0000,-559.0000,1628.0000,0.6039,-0.6677,0.4180,-0.1213,104.3800,-70.0700,-111.2300,7.1200,18.2200,3.7800,0.0000,0.0000,-0.0000,1485.0000,1060.0000,1500.0000,1999.0000
234794.6070,2.0000,1998.0000,1074.0000,1954.0000,49.0000,-250.0000,-103.0000,492.0000,-1148.0000,4211.0000,0.6208,-0.6731,0.3858,-0.1126,104.5200,-69.6600,-111.0100,7.1400,18.2900,4.4000,0.0000,0.0000,-0.0000,1485.0000,1060.0000,1500.0000,1999.0000
234811.2140,2.0000,1998.0000,1082.0000,1962.0000,42.0000,-292.0000,-79.0000,495.0000,-1586.0000,6968.0000,0.6382,-0.6779,0.3518,-0.0972,104.6500,-69.2800,-110.7800,7.3400,18.0900,4.9600,0.0000,0.0000,-0.0000,1476.0000,1060.0000,1500.0000,1999.0000
234828.0180,2.0000,1998.0000,1083.0000,1963.0000,45.0000,-310.0000,-53.0000,1095.0000,-1780.0000,9863.0000,0.6563,-0.6807,0.3166,-0.0759,104.6500,-69.2800,-110.7800,7.3400,18.0900,4.9600,0.0000,0.0000,-0.0000,1476.0000,1060.0000,1500.0000,1999.0000
234844.8760,2.0000,1998.0000,1083.0000,1963.0000,51.0000,-314.0000,-29.0000,1801.0000,-1706.0000,12055.0000,0.6744,-0.6804,0.2821,-0.0514,104.7800,-68.9400,-110.5500,7.6800,17.6400,5.4500,0.0000,0.0000,-0.0000,1476.0000,1060.0000,1500.0000,1999.0000
234861.8590,2.0000,1998.0000,1083.0000,1963.0000,60.0000,-309.0000,-12.0000,2183.0000,-1717.0000,13950.0000,0.6921,-0.6769,0.2493,-0.0251,104.9200,-68.5500,-110.3000,8.0300,17.1000,5.9300,0.0000,0.0000,-0.0000,1476.0000,1060.0000,1500.0000,1999.0000
234878.8680,2.0000,1998.0000,1083.0000,1963.0000,70.0000,-288.0000,2.0000,2457.0000,-1529.0000,15158.0000,0.7088,-0.6707,0.2187,0.0010,105.0600,-68.1400,-110.0500,8.2800,16.5100,6.3100,0.0000,0.0000,-0.0000,1476.0000,1060.0000,1500.0000,1999.0000
234895.8300,2.0000,1998.0000,1083.0000,1963.0000,86.0000,-251.0000,12.0000,2277.0000,-1609.0000,15779.0000,0.7248,-0.6612,0.1920,0.0247,105.2100,-67.7700,-109.8100,8.4500,15.8000,6.5700,0.0000,0.0000,-0.0000,1476.0000,1060.0000,1500.0000,1999.0000
234912.8720,2.0000,1998.0000,1166.0000,1870.0000,91.0000,-195.0000,22.0000,1985.0000,-1544.0000,16006.0000,0.7393,-0.6499,0.1704,0.0453,105.3400,-67.4400,-109.5700,8.5000,15.0500,6.7000,0.0000,0.0000,-0.0000,1481.0000,1148.0000,1500.0000,1999.0000
234929.9430,2.0000,1998.0000,1166.0000,1870.0000,105.0000,-139.0000,31.0000,1577.0000,-1431.0000,15192.0000,0.7524,-0.6370,0.1565,0.0603,105.3400,-67.4400,-109.5700,8.5000,15.0500,6.7000,0.0000,0.0000,-0.0000,1481.0000,1148.0000,1500.0000,1999.0000
234946.7230,2.0000,1998.0000,1166.0000,1870.0000,104.0000,-80.0000,43.0000,1284.0000,-1140.0000,13091.0000,0.7647,-0.6228,0.1495,0.0711,105.4700,-67.1300,-109.3500,8.4100,14.3700,6.7000,0.0000,0.0000,-0.0000,1481.0000,1148.0000,1500.0000,1999.0000
234963.7070,2.0000,1998.0000,1166.0000,1870.0000,90.0000,-30.0000,55.0000,1418.0000,-1193.0000,11729.0000,0.7749,-0.6091,0.1499,0.0783,105.6000,-66.7900,-109.1200,8.2200,13.9600,6.6500,0.0000,0.0000,-0.0000,1481.0000,1148.0000,1500.0000,1999.0000
234980.4620,2.0000,1998.0000,1166.0000,1870.0000,77.0000,2.0000,68.0000,1115.0000,-1047.0000,10216.0000,0.7821,-0.5975,0.1562,0.0831,105.7300,-66.4300,-108.8900,8.0300,13.7800,6.5900,0.0000,0.0000,-0.0000,1481.0000,1148.0000,1500.0000,1999.0000
234997.5720,2.0000,1998.0000,1080.0000,1956.0000,66.0000,41.0000,85.0000,1099.0000,-1063.0000,8926.0000,0.7871,-0.5871,0.1678,0.0869,105.8500,-66.0900,-108.6700,7.8200,13.7500,6.5400,0.0000,0.0000,-0.0000,1481.0000,1061.0000,1500.0000,1999.0000
235014.2690,2.0000,1998.0000,1079.0000,1957.0000,39.0000,67.0000,95.0000,1241.0000,-817.0000,6723.0000,0.7890,-0.5794,0.1831,0.0906,105.9500,-65.7700,-108.4700,7.6400,13.8500,6.5000,0.0000,0.0000,-0.0000,1481.0000,1061.0000,1500.0000,1999.0000
235031.3620,2.0000,1998.0000,1079.0000,1957.0000,4.0000,56.0000,103.0000,932.0000,-558.0000,4673.0000,0.7877,-0.5749,0.1999,0.0952,106.0500,-65.4700,-108.2600,7.4100,14.1700,6.5500,0.0000,0.0000,-0.0000,1481.0000,1061.0000,1500.0000,1999.0000
235048.1260,2.0000,1998.0000,1079.0000,1957.0000,-18.0000,26.0000,106.0000,746.0000,-315.0000,2775.0000,0.7844,-0.5730,0.2139,0.1032,106.0500,-65.4700,-108.2600,7.4100,14.1700,6.5500,0.0000,0.0000,-0.0000,1481.0000,1061.0000,1500.0000,1999.0000
235065.2800,2.0000,1998.0000,1079.0000,1957.0000,-35.0000,-30.0000,102.0000,477.0000,-11.0000,1520.0000,0.7804,-0.5726,0.2231,0.1154,106.1500,-65.1200,-108.0600,7.1500,14.4400,6.6700,0.0000,0.0000,-0.0000,1481.0000,1061.0000,1500.0000,1999.0000
235082.2570,2.0000,1998.0000,1079.0000,1957.0000,-41.0000,-76.0000,92.0000,457.0000,163.0000,1495.0000,0.7775,-0.5724,0.2249,0.1317,106.2600,-64.7400,-107.8500,6.8500,14.5900,6.8700,0.0000,0.0000,-0.0000,1481.0000,1061.0000,1500.0000,1999.0000
235099.2210,2.0000,1998.0000,1081.0000,1957.0000,-37.0000,-127.0000,75.0000,496.0000,514.0000,2384.0000,0.7760,-0.5716,0.2202,0.1505,106.3500,-64.3800,-107.6500,6.5600,14.7100,7.0700,0.0000,0.0000,-0.0000,1480.0000,1062.0000,1500.0000,1999.0000
235115.9860,2.0000,1998.0000,1081.0000,1957.0000,-40.0000,-177.0000,52.0000,617.0000,690.0000,3992.0000,0.7763,-0.5700,0.2081,0.1704,106.4300,-64.0500,-107.4500,6.3000,14.6800,7.2800,0.0000,0.0000,-0.0000,1480.0000,1062.0000,1500.0000,1999.0000
235132.5850,2.0000,1998.0000,1081.0000,1957.0000,-42.0000,-209.0000,34.0000,691.0000,488.0000,6048.0000,0.7778,-0.5679,0.1898,0.1910,106.5000,-63.7400,-107.2600,6.0800,14.4400,7.4400,0.0000,0.0000,-0.0000,1480.0000,1062.0000,1500.0000,1999.0000
235149.4870,2.0000,1998.0000,1081.0000,1957.0000,-46.0000,-219.0000,19.0000,913.0000,147.0000,8333.0000,0.7794,-0.5655,0.1671,0.2117,106.5000,-63.7400,-107.2600,6.0800,14.4400,7.4400,0.0000,0.0000,-0.0000,1480.0000,1062.0000,1500.0000,1999.0000
235166.2910,2.0000,1998.0000,1081.0000,1957.0000,-47.0000,-221.0000,4.0000,1280.0000,30.0000,10298.0000,0.7805,-0.5633,0.1424,0.2308,106.5800,-63.4200,-107.0600,5.9400,13.7300,7.4900,0.0000,0.0000,-0.0000,1480.0000,1062.0000,1500.0000,1999.0000
235183.3450,2.0000,1998.0000,1081.0000,1957.0000,-52.0000,-210.0000,-6.0000,1513.0000,-171.0000,11928.0000,0.7810,-0.5611,0.1163,0.2483,106.6700,-63.1000,-106.8500,5.8400,12.6600,7.4500,0.0000,0.0000,-0.0000,1480.0000,1062.0000,1500.0000,1999.0000
235200.2860,2.0000,1997.0000,1815.0000,1185.0000,-60.0000,-196.0000,-12.0000,1659.0000,-229.0000,12610.0000,0.7805,-0.5596,0.0909,0.2636,106.7500,-62.8300,-106.6500,5.6900,11.5600,7.3200,0.0000,0.0000,-0.0000,1500.0000,1816.0000,1500.0000,1998.0000
235217.1210,2.0000,1997.0000,1815.0000,1185.0000,-63.0000,-174.0000,-17.0000,1593.0000,-327.0000,12934.0000,0.7786,-0.5593,0.0668,0.2766,106.8200,-62.6000,-106.4700,5.5000,10.5200,7.1400,0.0000,0.0000,-0.0000,1500.0000,1816.0000,1500.0000,1998.0000
235233.9800,2.0000,1997.0000,1815.0000,1185.0000,-61.0000,-136.0000,-18.0000,1652.0000,-410.0000,13165.0000,0.7758,-0.5603,0.0460,0.2865,106.8900,-62.4000,-106.3000,5.2500,9.5700,6.9100,0.0000,0.0000,-0.0000,1500.0000,1816.0000,1500.0000,1998.0000
235250.9350,2.0000,1997.0000,1815.0000,1185.0000,-59.0000,-94.0000,-21.0000,1692.0000,-515.0000,13118.0000,0.7727,-0.5623,0.0293,0.2930,106.8900,-62.4000,-106.3000,5.2500,9.5700,6.9100,0.0000,0.0000,-0.0000,1500.0000,1816.0000,1500.0000,1998.0000
235267.9820,2.0000,1997.0000,1815.0000,1185.0000,-56.0000,-42.0000,-21.0000,1783.0000,-582.0000,12748.0000,0.7693,-0.5664,0.0181,0.2952,106.9700,-62.2000,-106.1100,5.1700,8.5700,6.6700,0.0000,0.0000,-0.0000,1500.0000,1816.0000,1500.0000,1998.0000
235284.7960,2.0000,1997.0000,1815.0000,1185.0000,-44.0000,39.0000,-21.0000,1679.0000,-686.0000,12072.0000,0.7663,-0.5722,0.0145,0.2920,107.0700,-62.0200,-105.9000,5.2500,7.5800,6.4700,0.0000,0.0000,-0.0000,1500.0000,1816.0000,1500.0000,1998.0000
235301.8420,2.0000,1997.0000,1819.0000,1141.0000,-7.0000,118.0000,-13.0000,1253.0000,-895.0000,10637.0000,0.7648,-0.5786,0.0215,0.2823,107.1700,-61.8600,-105.7200,5.3000,6.7400,6.2800,0.0000,0.0000,-0.0000,1523.0000,1841.0000,1500.0000,1998.0000
235318.5120,2.0000,1997.0000,1819.0000,1139.0000,22.0000,208.0000,1.0000,1428.0000,-1069.0000,7731.0000,0.7655,-0.5843,0.0406,0.2665,107.2600,-61.7200,-105.5400,5.3600,6.1000,6.1300,0.0000,0.0000,-0.0000,1523.0000,1841.0000,1500.0000,1998.0000
235335.5400,2.0000,1997.0000,1819.0000,1139.0000,52.0000,277.0000,11.0000,1226.0000,-747.0000,3414.0000,0.7670,-0.5889,0.0710,0.2447,107.3500,-61.6100,-105.3700,5.5900,5.8900,6.1200,0.0000,0.0000,-0.0000,1523.0000,1841.0000,1500.0000,1998.0000
235352.3690,2.0000,1997.0000,1819.0000,1139.0000,70.0000,340.0000,25.0000,1169.0000,-565.0000,-1551.0000,0.7677,-0.5922,0.1101,0.2185,107.3500,-61.6100,-105.3700,5.5900,5.8900,6.1200,0.0000,0.0000,-0.0000,1523.0000,1841.0000,1500.0000,1998.0000
235369.3270,2.0000,1997.0000,1819.0000,1139.0000,77.0000,358.0000,36.0000,930.0000,-576.0000,-7336.0000,0.7662,-0.5941,0.1550,0.1896,107.4700,-61.4900,-105.1700,6.0000,5.8500,6.2600,0.0000,0.0000,-0.0000,1523.0000,1841.0000,1500.0000,1998.0000
235386.3700,2.0000,1997.0000,1819.0000,1139.0000,69.0000,323.0000,48.0000,810.0000,-559.0000,-12315.0000,0.7623,-0.5939,0.1994,0.1625,107.6300,-61.3700,-104.9400,6.4500,6.1000,6.5100,0.0000,0.0000,-0.0000,1523.0000,1841.0000,1500.0000,1998.0000
235403.0860,2.0000,1997.0000,1819.0000,1139.0000,45.0000,251.0000,50.0000,940.0000,-231.0000,-13662.0000,0.7567,-0.5927,0.2367,0.1414,107.7800,-61.2400,-104.7100,6.6900,6.8500,6.5700,0.0000,0.0000,-0.0000,1523.0000,1841.0000,1500.0000,1998.0000
235419.8500,2.0000,1997.0000,1819.0000,1139.0000,32.0000,170.0000,52.0000,1148.0000,-118.0000,-12628.0000,0.7512,-0.5910,0.2649,0.1277,107.9200,-61.1100,-104.4700,6.7700,7.6600,6.5500,0.0000,0.0000,-0.0000,1523.0000,1841.0000,1500.0000,1998.0000
235436.9630,2.0000,1997.0000,1819.0000,1139.0000,16.0000,99.0000,46.0000,1174.0000,20.0000,-11188.0000,0.7471,-0.5887,0.2839,0.1212,108.0600,-60.9700,-104.2400,6.7900,8.2300,6.7100,0.0000,0.0000,-0.0000,1523.0000,1841.0000,1500.0000,1998.0000
235453.9880,2.0000,1997.0000,1819.0000,1139.0000,8.0000,31.0000,41.0000,725.0000,-246.0000,-9073.0000,0.7445,-0.5867,0.2949,0.1202,108.0600,-60.9700,-104.2400,6.7900,8.2300,6.7100,0.0000,0.0000,-0.0000,1523.0000,1841.0000,1500.0000,1998.0000
235470.9920,2.0000,1997.0000,1819.0000,1139.0000,-2.0000,-4.0000,36.0000,955.0000,-185.0000,-6876.0000,0.7430,-0.5858,0.2989,0.1243,108.2300,-60.8400,-104.0100,6.9200,8.2500,6.8300,0.0000,0.0000,-0.0000,1523.0000,1841.0000,1500.0000,1998.0000
235488.1370,2.0000,1997.0000,1819.0000,1139.0000,5.0000,-37.0000,32.0000,1079.0000,-210.0000,-5491.0000,0.7433,-0.5841,0.2987,0.1307,108.4200,-60.7300,-103.8100,7.1600,7.8200,6.9300,0.0000,0.0000,-0.0000,1523.0000,1841.0000,1500.0000,1998.0000
235504.7550,2.0000,1997.0000,1819.0000,1139.0000,13.0000,-47.0000,28.0000,776.0000,-326.0000,-4280.0000,0.7451,-0.5815,0.2962,0.1377,108.6100,-60.6300,-103.6100,7.4400,7.2700,7.1200,0.0000,0.0000,-0.0000,1523.0000,1841.0000,1500.0000,1998.0000
235521.7550,2.0000,1997.0000,1819.0000,1139.0000,14.0000,-38.0000,25.0000,1169.0000,-281.0000,-2775.0000,0.7474,-0.5782,0.2937,0.1441,108.7800,-60.5500,-103.4300,7.7000,6.6700,7.2900,0.0000,0.0000,-0.0000,1523.0000,1841.0000,1500.0000,1998.0000
235538.4530,2.0000,1997.0000,1821.0000,1141.0000,25.0000,-15.0000,24.0000,813.0000,-296.0000,-2048.0000,0.7493,-0.5754,0.2927,0.1478,108.9600,-60.4900,-103.2500,7.9800,5.9900,7.4700,0.0000,0.0000,-0.0000,1521.0000,1841.0000,1500.0000,1998.0000
235555.1980,2.0000,1997.0000,1821.0000,1141.0000,33.0000,11.0000,25.0000,614.0000,-425.0000,-1741.0000,0.7512,-0.5714,0.2944,0.1499,108.9600,-60.4900,-103.2500,7.9800,5.9900,7.4700,0.0000,0.0000,-0.0000,1521.0000,1841.0000,1500.0000,1998.0000
235571.9950,2.0000,1997.0000,1821.0000,1141.0000,45.0000,47.0000,30.0000,635.0000,-600.0000,-1514.0000,0.7525,-0.5668,0.3003,0.1493,109.1700,-60.4500,-103.0600,8.3700,5.2900,7.6000,0.0000,0.0000,-0.0000,1521.0000,1841.0000,1500.0000,1998.0000
235588.8900,2.0000,1997.0000,1821.0000,1141.0000,51.0000,84.0000,33.0000,880.0000,-349.0000,-2088.0000,0.7529,-0.5616,0.3108,0.1458,109.4100,-60.4300,-102.8900,8.8000,4.6600,7.7200,0.0000,0.0000,-0.0000,1521.0000,1841.0000,1500.0000,1998.0000
235606.1180,2.0000,1997.0000,1821.0000,1141.0000,58.0000,114.0000,37.0000,476.0000,-119.0000,-3588.0000,0.7516,-0.5563,0.3259,0.1394,109.6400,-60.4200,-102.7200,9.1600,4.1300,7.9000,0.0000,0.0000,-0.0000,1521.0000,1841.0000,1500.0000,1998.0000
235622.8330,2.0000,1997.0000,1821.0000,1141.0000,61.0000,132.0000,40.0000,306.0000,-25.0000,-5016.0000,0.7493,-0.5509,0.3433,0.1314,109.8700,-60.4200,-102.5500,9.3600,3.7900,8.0500,0.0000,0.0000,-0.0000,1521.0000,1841.0000,1500.0000,1998.0000
235639.5920,2.0000,1998.0000,1885.0000,1209.0000,61.0000,126.0000,42.0000,525.0000,17.0000,-5896.0000,0.7466,-0.5448,0.3614,0.1229,110.1200,-60.4200,-102.3800,9.4600,3.8100,8.1900,0.0000,0.0000,-0.0000,1452.0000,1839.0000,1500.0000,1999.0000
235656.6620,2.0000,1998.0000,1885.0000,1209.0000,67.0000,113.0000,40.0000,719.0000,-38.0000,-6279.0000,0.7443,-0.5378,0.3789,0.1148,110.1200,-60.4200,-102.3800,9.4600,3.8100,8.1900,0.0000,0.0000,-0.0000,1452.0000,1839.0000,1500.0000,1999.0000
235673.6430,2.0000,1998.0000,1885.0000,1209.0000,53.0000,101.0000,39.0000,771.0000,62.0000,-6488.0000,0.7420,-0.5311,0.3946,0.1077,110.3900,-60.4000,-102.2200,9.5000,4.0100,8.3700,0.0000,0.0000,-0.0000,1452.0000,1839.0000,1500.0000,1999.0000
235690.4400,2.0000,1998.0000,1885.0000,1209.0000,36.0000,89.0000,35.0000,476.0000,-22.0000,-6410.0000,0.7390,-0.5261,0.4080,0.1027,110.6300,-60.3900,-102.0700,9.5000,4.1900,8.5600,0.0000,0.0000,-0.0000,1452.0000,1839.0000,1500.0000,1999.0000
235707.5080,2.0000,1998.0000,1885.0000,1209.0000,17.0000,82.0000,32.0000,423.0000,-24.0000,-6310.0000,0.7352,-0.5229,0.4198,0.0989,110.8600,-60.3700,-101.9200,9.4500,4.3400,8.7500,0.0000,0.0000,-0.0000,1452.0000,1839.0000,1500.0000,1999.0000
235724.2090,2.0000,1998.0000,1885.0000,1209.0000,-3.0000,69.0000,27.0000,337.0000,-63.0000,-6158.0000,0.7305,-0.5219,0.4298,0.0964,111.0700,-60.3500,-101.7700,9.3700,4.4500,8.9600,0.0000,0.0000,-0.0000,1452.0000,1839.0000,1500.0000,1999.0000
235741.2520,2.0000,2000.0000,2000.0000,1561.0000,-13.0000,61.0000,24.0000,292.0000,-58.0000,-5685.0000,0.7254,-0.5224,0.4379,0.0954,111.3100,-60.3100,-101.6100,9.2800,4.7600,9.1600,0.0000,0.0000,-0.0000,1198.0000,1743.0000,1500.0000,2000.0000
235757.8130,2.0000,2000.0000,2000.0000,1561.0000,-22.0000,47.0000,21.0000,-106.0000,-13.0000,-5407.0000,0.7204,-0.5240,0.4442,0.0957,111.3100,-60.3100,-101.6100,9.2800,4.7600,9.1600,0.0000,0.0000,-0.0000,1198.0000,1743.0000,1500.0000,2000.0000
235774.5940,2.0000,2000.0000,2000.0000,1561.0000,-51.0000,41.0000,16.0000,347.0000,50.0000,-4908.0000,0.7144,-0.5274,0.4495,0.0971,111.5500,-60.2500,-101.4400,9.1900,5.0800,9.3500,0.0000,0.0000,-0.0000,1198.0000,1743.0000,1500.0000,2000.0000
235791.3950,2.0000,2000.0000,2000.0000,1561.0000,-110.0000,39.0000,13.0000,101.0000,244.0000,-4979.0000,0.7050,-0.5359,0.4532,0.1014,111.7800,-60.1900,-101.2700,9.1200,5.3300,9.5200,0.0000,0.0000,-0.0000,1198.0000,1743.0000,1500.0000,2000.0000
235808.1680,2.0000,2000.0000,2000.0000,1561.0000,-182.0000,38.0000,8.0000,76.0000,300.0000,-5131.0000,0.6905,-0.5513,0.4552,0.1100,111.9800,-60.1300,-101.1100,9.0300,5.5300,9.6800,0.0000,0.0000,-0.0000,1198.0000,1743.0000,1500.0000,2000.0000
235824.8210,2.0000,2000.0000,2000.0000,1561.0000,-230.0000,34.0000,8.0000,279.0000,223.0000,-5031.0000,0.6710,-0.5723,0.4552,0.1225,112.1800,-60.0700,-100.9400,8.9300,5.7300,9.8200,0.0000,0.0000,-0.0000,1198.0000,1743.0000,1500.0000,2000.0000
235841.5070,2.0000,1999.0000,1979.0000,1495.0000,-279.0000,34.0000,2.0000,673.0000,170.0000,-4147.0000,0.6467,-0.5975,0.4538,0.1373,112.3900,-59.9700,-100.7600,8.8400,6.1800,10.0000,0.0000,0.0000,-0.0000,1486.0000,1749.0000,1500.0000,1999.0000
235858.3390,2.0000,1998.0000,1760.0000,1266.0000,-314.0000,46.0000,-5.0000,572.0000,34.0000,-3308.0000,0.6168,-0.6267,0.4507,0.1538,112.3900,-59.9700,-100.7600,8.8400,6.1800,10.0000,0.0000,0.0000,-0.0000,1486.0000,1749.0000,1500.0000,1999.0000
235875.3360,2.0000,1998.0000,1760.0000,1266.0000,-304.0000,55.0000,-12.0000,313.0000,121.0000,-3068.0000,0.5837,-0.6568,0.4463,0.1695,112.6000,-59.8500,-100.5800,8.8200,6.6000,10.2100,0.0000,0.0000,-0.0000,1486.0000,1749.0000,1500.0000,1999.0000
235892.1520,2.0000,1998.0000,1760.0000,1266.0000,-251.0000,92.0000,-20.0000,81.0000,26.0000,-2923.0000,0.5515,-0.6836,0.4429,0.1799,112.8000,-59.7400,-100.3800,8.8200,6.9200,10.4100,0.0000,0.0000,-0.0000,1486.0000,1749.0000,1500.0000,1999.0000
235909.1170,2.0000,1998.0000,1760.0000,1266.0000,-172.0000,128.0000,-30.0000,38.0000,110.0000,-3492.0000,0.5234,-0.7052,0.4427,0.1810,112.9900,-59.6200,-100.1800,8.8100,7.1700,10.5500,0.0000,0.0000,-0.0000,1486.0000,1749.0000,1500.0000,1999.0000
235925.8870,2.0000,1997.0000,1759.0000,1265.0000,-112.0000,142.0000,-40.0000,21.0000,32.0000,-5133.0000,0.5008,-0.7219,0.4449,0.1737,113.1600,-59.5100,-99.9800,8.7800,7.4400,10.6400,0.0000,0.0000,-0.0000,1487.0000,1749.0000,1500.0000,1998.0000
235942.8510,2.0000,1997.0000,1759.0000,1265.0000,-70.0000,149.0000,-47.0000,206.0000,234.0000,-6801.0000,0.4826,-0.7351,0.4482,0.1606,113.3600,-59.3500,-99.7600,8.6900,8.0500,10.5700,0.0000,0.0000,-0.0000,1487.0000,1749.0000,1500.0000,1998.0000
235960.2480,2.0000,1997.0000,1759.0000,1265.0000,-51.0000,136.0000,-46.0000,307.0000,48.0000,-8078.0000,0.4667,-0.7465,0.4515,0.1451,113.3600,-59.3500,-99.7600,8.6900,8.0500,10.5700,0.0000,0.0000,-0.0000,1487.0000,1749.0000,1500.0000,1998.0000
235977.1120,2.0000,1997.0000,1759.0000,1265.0000,-40.0000,105.0000,-41.0000,694.0000,-400.0000,-8768.0000,0.4545,-0.7554,0.4531,0.1324,113.5500,-59.1700,-99.5600,8.5600,8.7800,10.3500,0.0000,0.0000,-0.0000,1487.0000,1749.0000,1500.0000,1998.0000
235993.9940,2.0000,1997.0000,1759.0000,1265.0000,-44.0000,70.0000,-37.0000,543.0000,-331.0000,-8567.0000,0.4446,-0.7629,0.4528,0.1234,113.7400,-58.9900,-99.3600,8.4500,9.5100,10.0500,0.0000,0.0000,-0.0000,1487.0000,1749.0000,1500.0000,1998.0000
236010.9250,2.0000,1997.0000,1759.0000,1265.0000,-44.0000,31.0000,-33.0000,335.0000,-106.0000,-7473.0000,0.4368,-0.7694,0.4508,0.1184,113.9000,-58.8000,-99.1700,8.3500,10.1200,9.7400,0.0000,0.0000,-0.0000,1487.0000,1749.0000,1500.0000,1998.0000
236027.7760,2.0000,1997.0000,1759.0000,1265.0000,-35.0000,9.0000,-27.0000,573.0000,-570.0000,-6353.0000,0.4320,-0.7744,0.4471,0.1178,114.0600,-58.6200,-99.0000,8.2500,10.5400,9.5000,0.0000,0.0000,-0.0000,1487.0000,1749.0000,1500.0000,1999.0000
236044.7500,2.0000,1998.0000,1759.0000,1265.0000,-33.0000,-2.0000,-18.0000,323.0000,-631.0000,-5499.0000,0.4284,-0.7781,0.4439,0.1181,114.2400,-58.3800,-98.8100,8.2300,11.0700,9.3300,0.0000,0.0000,-0.0000,1487.0000,1749.0000,1500.0000,1999.0000
236061.6850,2.0000,1998.0000,1759.0000,1265.0000,-32.0000,4.0000,-9.0000,138.0000,-595.0000,-4695.0000,0.4249,-0.7812,0.4415,0.1194,114.2400,-58.3800,-98.8100,8.2300,11.0700,9.3300,0.0000,0.0000,-0.0000,1487.0000,1749.0000,1500.0000,1999.0000
236078.6600,2.0000,1998.0000,1759.0000,1265.0000,-24.0000,11.0000,2.0000,-286.0000,-503.0000,-4092.0000,0.4214,-0.7834,0.4406,0.1205,114.4200,-58.1300,-98.6300,8.2100,11.4900,9.2100,0.0000,0.0000,-0.0000,1487.0000,1749.0000,1500.0000,1999.0000
236095.5750,2.0000,1998.0000,1759.0000,1265.0000,-17.0000,32.0000,12.0000,282.0000,-654.0000,-3612.0000,0.4180,-0.7846,0.4417,0.1208,114.5900,-57.8900,-98.4500,8.1700,11.7800,9.1800,0.0000,0.0000,-0.0000,1487.0000,1749.0000,1500.0000,1999.0000
236112.5500,2.0000,1998.0000,1759.0000,1265.0000,-10.0000,57.0000,24.0000,211.0000,-648.0000,-3850.0000,0.4127,-0.7853,0.4461,0.1182,114.7400,-57.6700,-98.2600,8.1600,11.9900,9.2300,0.0000,0.0000,-0.0000,1487.0000,1749.0000,1500.0000,1999.0000
236129.0730,2.0000,1998.0000,1756.0000,1268.0000,-3.0000,73.0000,33.0000,-282.0000,-517.0000,-4584.0000,0.4070,-0.7852,0.4527,0.1134,114.8800,-57.4500,-98.0700,8.1400,12.1700,9.2600,0.0000,0.0000,-0.0000,1487.0000,1746.0000,1500.0000,1999.0000
236146.1720,2.0000,1998.0000,1756.0000,1268.0000,-7.0000,93.0000,42.0000,458.0000,-442.0000,-5178.0000,0.4000,-0.7845,0.4618,0.1061,115.0500,-57.1700,-97.8700,8.0300,12.6200,9.1700,0.0000,0.0000,-0.0000,1487.0000,1746.0000,1500.0000,1999.0000
236162.9130,2.0000,1998.0000,1756.0000,1268.0000,-4.0000,92.0000,48.0000,247.0000,-234.0000,-6368.0000,0.3922,-0.7835,0.4718,0.0985,115.0500,-57.1700,-97.8700,8.0300,12.6200,9.1700,0.0000,0.0000,-0.0000,1487.0000,1746.0000,1500.0000,1999.0000
236179.6280,2.0000,1998.0000,1756.0000,1268.0000,-14.0000,85.0000,50.0000,380.0000,-8.0000,-7064.0000,0.3842,-0.7823,0.4815,0.0925,115.2100,-56.8700,-97.6700,7.9000,13.1500,8.9900,0.0000,0.0000,-0.0000,1487.0000,1746.0000,1500.0000,1999.0000
236196.6350,2.0000,1998.0000,1756.0000,1268.0000,-21.0000,66.0000,51.0000,478.0000,-126.0000,-6877.0000,0.3758,-0.7812,0.4907,0.0884,115.3600,-56.5900,-97.4800,7.7200,13.6700,8.7000,0.0000,0.0000,-0.0000,1487.0000,1746.0000,1500.0000,1999.0000
236213.4950,2.0000,1998.0000,1756.0000,1268.0000,-21.0000,51.0000,52.0000,90.0000,-108.0000,-6456.0000,0.3681,-0.7797,0.4991,0.0861,115.5000,-56.3100,-97.3000,7.5600,14.1100,8.4100,0.0000,0.0000,-0.0000,1487.0000,1746.0000,1500.0000,1999.0000
236230.2150,2.0000,1998.0000,1756.0000,1268.0000,-23.0000,45.0000,48.0000,-405.0000,214.0000,-6577.0000,0.3613,-0.7782,0.5065,0.0852,115.6300,-56.0400,-97.1400,7.3900,14.4200,8.1300,0.0000,0.0000,-0.0000,1487.0000,1746.0000,1500.0000,1999.0000
236246.8890,2.0000,1998.0000,1756.0000,1268.0000,-26.0000,36.0000,45.0000,-307.0000,175.0000,-6331.0000,0.3549,-0.7769,0.5131,0.0853,115.7600,-55.7000,-96.9700,7.1300,14.9400,7.8400,0.0000,0.0000,-0.0000,1487.0000,1746.0000,1500.0000,1999.0000
236263.9280,2.0000,1998.0000,1756.0000,1268.0000,-27.0000,27.0000,38.0000,104.0000,41.0000,-5815.0000,0.3492,-0.7757,0.5185,0.0866,115.7600,-55.7000,-96.9700,7.1300,14.9400,7.8400,0.0000,0.0000,-0.0000,1487.0000,1746.0000,1500.0000,1999.0000
236280.8270,2.0000,1998.0000,1073.0000,1953.0000,-24.0000,33.0000,29.0000,580.0000,95.0000,-5063.0000,0.3431,-0.7754,0.5230,0.0871,115.9000,-55.3600,-96.8000,6.9100,15.4200,7.6700,0.0000,0.0000,-0.0000,1486.0000,1060.0000,1500.0000,1999.0000
236297.6640,2.0000,1998.0000,1073.0000,1953.0000,-20.0000,45.0000,20.0000,961.0000,334.0000,-4585.0000,0.3372,-0.7755,0.5267,0.0861,116.0200,-55.0300,-96.6300,6.7500,15.8200,7.6000,0.0000,0.0000,-0.0000,1486.0000,1060.0000,1500.0000,1999.0000
236314.6370,2.0000,1998.0000,1073.0000,1953.0000,-16.0000,42.0000,11.0000,624.0000,436.0000,-5210.0000,0.3315,-0.7760,0.5301,0.0831,116.1300,-54.7100,-96.4600,6.6100,16.1500,7.5700,0.0000,0.0000,-0.0000,1486.0000,1060.0000,1500.0000,1999.0000
236331.3830,2.0000,1998.0000,1073.0000,1953.0000,-23.0000,5.0000,0.0000,308.0000,410.0000,-6905.0000,0.3272,-0.7772,0.5313,0.0821,116.2300,-54.3900,-96.3000,6.4400,16.4600,7.4700,0.0000,0.0000,-0.0000,1486.0000,1060.0000,1500.0000,1999.0000
236348.0550,2.0000,1998.0000,1073.0000,1953.0000,-42.0000,-62.0000,-8.0000,-180.0000,479.0000,-8359.0000,0.3254,-0.7789,0.5288,0.0875,116.3500,-54.0000,-96.1200,6.2200,17.0300,7.1900,0.0000,0.0000,-0.0000,1486.0000,1060.0000,1500.0000,1999.0000
236365.0400,2.0000,1998.0000,1074.0000,1954.0000,-54.0000,-152.0000,-19.0000,-563.0000,328.0000,-7854.0000,0.3283,-0.7810,0.5212,0.1029,116.3500,-54.0000,-96.1200,6.2200,17.0300,7.1900,0.0000,0.0000,-0.0000,1485.0000,1060.0000,1500.0000,1999.0000
236382.0880,2.0000,1998.0000,1074.0000,1954.0000,-60.0000,-240.0000,-30.0000,-337.0000,343.0000,-3921.0000,0.3372,-0.7824,0.5073,0.1295,116.4600,-53.6200,-95.9400,6.0000,17.5400,6.9300,0.0000,0.0000,-0.0000,1485.0000,1060.0000,1500.0000,1999.0000
236399.3310,2.0000,1998.0000,1074.0000,1954.0000,-48.0000,-302.0000,-39.0000,-186.0000,41.0000,2050.0000,0.3522,-0.7818,0.4876,0.1643,116.5600,-53.2400,-95.7400,5.8900,17.8100,7.0300,0.0000,0.0000,-0.0000,1485.0000,1060.0000,1500.0000,1999.0000
236416.3340,2.0000,1998.0000,1074.0000,1954.0000,-37.0000,-322.0000,-47.0000,197.0000,-370.0000,7744.0000,0.3707,-0.7786,0.4644,0.2018,116.6500,-52.8900,-95.5000,5.8900,17.6400,7.9000,0.0000,0.0000,-0.0000,1485.0000,1060.0000,1500.0000,1999.0000
236433.1310,2.0000,1998.0000,1074.0000,1954.0000,-30.0000,-323.0000,-51.0000,858.0000,-575.0000,12067.0000,0.3901,-0.7732,0.4397,0.2381,116.7300,-52.5700,-95.2200,5.9400,17.0200,9.1800,0.0000,0.0000,-0.0000,1485.0000,1060.0000,1500.0000,1999.0000
236449.9080,2.0000,1998.0000,1077.0000,1955.0000,-27.0000,-295.0000,-45.0000,1470.0000,-740.0000,14776.0000,0.4084,-0.7658,0.4160,0.2714,116.8500,-52.1600,-94.8500,5.9600,16.3300,10.7200,0.0000,0.0000,-0.0000,1482.0000,1061.0000,1500.0000,1999.0000
236466.9740,2.0000,1998.0000,1078.0000,1956.0000,-25.0000,-265.0000,-39.0000,1648.0000,-1013.0000,16701.0000,0.4247,-0.7574,0.3938,0.3015,116.8500,-52.1600,-94.8500,5.9600,16.3300,10.7200,0.0000,0.0000,-0.0000,1482.0000,1061.0000,1500.0000,1999.0000
236483.6740,2.0000,1998.0000,1078.0000,1956.0000,-22.0000,-224.0000,-31.0000,1621.0000,-1080.0000,17208.0000,0.4378,-0.7491,0.3748,0.3265,116.9600,-51.8000,-94.4300,5.9200,15.4500,12.2300,0.0000,0.0000,-0.0000,1482.0000,1061.0000,1500.0000,1999.0000
236500.8750,2.0000,1998.0000,1078.0000,1956.0000,-13.0000,-185.0000,-27.0000,1417.0000,-1285.0000,16936.0000,0.4492,-0.7410,0.3581,0.3478,117.0600,-51.4700,-93.9600,5.8000,14.4900,13.6200,0.0000,0.0000,-0.0000,1482.0000,1061.0000,1500.0000,1999.0000
236517.7960,2.0000,1998.0000,1078.0000,1956.0000,-12.0000,-144.0000,-23.0000,1325.0000,-1331.0000,15691.0000,0.4580,-0.7341,0.3444,0.3643,117.1500,-51.1900,-93.4600,5.6400,13.6200,14.7900,0.0000,0.0000,-0.0000,1482.0000,1061.0000,1500.0000,1999.0000
236534.6720,2.0000,1998.0000,1078.0000,1956.0000,-10.0000,-121.0000,-15.0000,1019.0000,-1097.0000,13992.0000,0.4648,-0.7284,0.3339,0.3767,117.2400,-50.9400,-92.9600,5.4700,12.8800,15.7500,0.0000,0.0000,-0.0000,1482.0000,1061.0000,1500.0000,1999.0000
236551.5380,2.0000,1998.0000,1078.0000,1956.0000,-10.0000,-102.0000,-8.0000,714.0000,-1046.0000,12216.0000,0.4702,-0.7231,0.3258,0.3873,117.3500,-50.6000,-92.4400,5.3000,12.4600,16.5400,0.0000,0.0000,-0.0000,1482.0000,1061.0000,1500.0000,1999.0000
236568.5190,2.0000,1998.0000,1074.0000,1952.0000,-12.0000,-85.0000,-2.0000,498.0000,-931.0000,10946.0000,0.4740,-0.7185,0.3197,0.3961,117.3500,-50.6000,-92.4400,5.3000,12.4600,16.5400,0.0000,0.0000,-0.0000,1486.0000,1060.0000,1500.0000,1999.0000
236585.6140,2.0000,1998.0000,1073.0000,1953.0000,-10.0000,-78.0000,7.0000,268.0000,-894.0000,9559.0000,0.4771,-0.7139,0.3149,0.4045,117.4500,-50.3000,-91.9300,5.1400,12.1500,17.1800,0.0000,0.0000,-0.0000,1486.0000,1060.0000,1500.0000,1999.0000
236602.6380,2.0000,1998.0000,1073.0000,1953.0000,-14.0000,-96.0000,17.0000,238.0000,-857.0000,8580.0000,0.4798,-0.7084,0.3102,0.4144,117.5400,-50.0200,-91.4200,5.0000,11.9600,17.7000,0.0000,0.0000,-0.0000,1486.0000,1060.0000,1500.0000,1999.0000
236619.3130,2.0000,1998.0000,1073.0000,1953.0000,-17.0000,-118.0000,27.0000,368.0000,-866.0000,7893.0000,0.4822,-0.7014,0.3048,0.4273,117.6200,-49.7600,-90.9300,4.8700,11.8600,18.1300,0.0000,0.0000,-0.0000,1486.0000,1060.0000,1500.0000,1999.0000
236635.9970,2.0000,1998.0000,1073.0000,1953.0000,-19.0000,-156.0000,36.0000,347.0000,-810.0000,7871.0000,0.4850,-0.6921,0.2980,0.4437,117.7100,-49.5100,-90.4400,4.7700,11.8000,18.5200,0.0000,0.0000,-0.0000,1486.0000,1060.0000,1500.0000,1999.0000
236653.0300,2.0000,1998.0000,1072.0000,1952.0000,-19.0000,-188.0000,42.0000,512.0000,-946.0000,9158.0000,0.4888,-0.6796,0.2894,0.4642,117.8000,-49.2000,-89.9300,4.6300,11.6700,18.8900,0.0000,0.0000,-0.0000,1487.0000,1060.0000,1500.0000,1999.0000
236670.0990,2.0000,1998.0000,1072.0000,1952.0000,-22.0000,-209.0000,43.0000,656.0000,-850.0000,10773.0000,0.4931,-0.6645,0.2786,0.4875,117.8000,-49.2000,-89.9300,4.6300,11.6700,18.8900,0.0000,0.0000,-0.0000,1487.0000,1060.0000,1500.0000,1999.0000
236687.0130,2.0000,1998.0000,1072.0000,1952.0000,-31.0000,-212.0000,44.0000,866.0000,-638.0000,12058.0000,0.4969,-0.6486,0.2669,0.5111,117.8900,-48.9100,-89.4200,4.4300,11.3700,19.2200,0.0000,0.0000,-0.0000,1487.0000,1060.0000,1500.0000,1999.0000
236703.9380,2.0000,1998.0000,1072.0000,1952.0000,-39.0000,-211.0000,43.0000,1071.0000,-724.0000,13549.0000,0.4992,-0.6327,0.2540,0.5348,117.9700,-48.6300,-88.9200,4.1400,10.9100,19.5200,0.0000,0.0000,-0.0000,1487.0000,1060.0000,1500.0000,1999.0000
236720.9070,2.0000,1998.0000,1072.0000,1952.0000,-46.0000,-200.0000,41.0000,914.0000,-584.0000,14379.0000,0.5004,-0.6170,0.2401,0.5578,118.0400,-48.3800,-88.4300,3.7600,10.3000,19.7300,0.0000,0.0000,-0.0000,1487.0000,1060.0000,1500.0000,1999.0000
236737.8160,2.0000,1998.0000,1072.0000,1952.0000,-49.0000,-187.0000,35.0000,1073.0000,-343.0000,14814.0000,0.5006,-0.6025,0.2264,0.5789,118.1100,-48.1500,-87.9600,3.3100,9.6400,19.8300,0.0000,0.0000,-0.0000,1487.0000,1060.0000,1500.0000,1999.0000
236754.7040,2.0000,1998.0000,1068.0000,1948.0000,-53.0000,-169.0000,27.0000,1231.0000,-485.0000,15178.0000,0.5003,-0.5894,0.2126,0.5976,118.1700,-47.9000,-87.4700,2.7800,8.8400,19.8700,0.0000,0.0000,-0.0000,1491.0000,1060.0000,1500.0000,1999.0000
236771.6190,2.0000,1998.0000,1068.0000,1948.0000,-55.0000,-150.0000,16.0000,1002.0000,-506.0000,14984.0000,0.4995,-0.5783,0.1991,0.6136,118.1700,-47.9000,-87.4700,2.7800,8.8400,19.8700,0.0000,0.0000,-0.0000,1491.0000,1060.0000,1500.0000,1999.0000
236788.6020,2.0000,1998.0000,1068.0000,1948.0000,-55.0000,-134.0000,6.0000,829.0000,-400.0000,14345.0000,0.4991,-0.5685,0.1856,0.6271,118.2300,-47.6700,-86.9900,2.2300,8.0800,19.8100,0.0000,0.0000,-0.0000,1491.0000,1060.0000,1500.0000,1999.0000
236805.6730,2.0000,1998.0000,1068.0000,1948.0000,-57.0000,-114.0000,-5.0000,686.0000,-464.0000,13637.0000,0.4986,-0.5610,0.1722,0.6380,118.2700,-47.4700,-86.5200,1.7000,7.4300,19.6800,0.0000,0.0000,-0.0000,1491.0000,1060.0000,1500.0000,1999.0000
236822.3950,2.0000,1998.0000,1068.0000,1948.0000,-52.0000,-107.0000,-17.0000,621.0000,-249.0000,12559.0000,0.4987,-0.5548,0.1589,0.6468,118.3000,-47.2800,-86.0700,1.2100,6.8900,19.5100,0.0000,0.0000,-0.0000,1491.0000,1060.0000,1500.0000,1999.0000
236839.3420,2.0000,1998.0000,1068.0000,1948.0000,-46.0000,-100.0000,-27.0000,573.0000,-293.0000,11607.0000,0.5002,-0.5488,0.1459,0.6537,118.3300,-47.1100,-85.6300,0.7700,6.4900,19.3300,0.0000,0.0000,-0.0000,1491.0000,1060.0000,1500.0000,1999.0000
236856.3700,2.0000,1998.0000,1068.0000,1948.0000,-44.0000,-105.0000,-33.0000,570.0000,-550.0000,11143.0000,0.5026,-0.5429,0.1327,0.6596,118.3500,-46.9200,-85.1700,0.3700,6.0400,19.1700,0.0000,0.0000,-0.0000,1491.0000,1060.0000,1500.0000,1999.0000
236873.2080,2.0000,1998.0000,1072.0000,1952.0000,-42.0000,-107.0000,-32.0000,507.0000,-763.0000,10532.0000,0.5054,-0.5366,0.1194,0.6651,118.3500,-46.9200,-85.1700,0.3700,6.0400,19.1700,0.0000,0.0000,-0.0000,1486.0000,1060.0000,1500.0000,1999.0000
236889.8780,2.0000,1998.0000,1073.0000,1953.0000,-40.0000,-115.0000,-28.0000,403.0000,-824.0000,10042.0000,0.5078,-0.5297,0.1059,0.6711,118.3700,-46.7400,-84.7100,0.0400,5.6700,18.9900,0.0000,0.0000,-0.0000,1486.0000,1060.0000,1500.0000,1999.0000
236906.8960,2.0000,1998.0000,1073.0000,1953.0000,-34.0000,-136.0000,-21.0000,558.0000,-885.0000,9694.0000,0.5100,-0.5202,0.0913,0.6789,118.3800,-46.5700,-84.2600,-0.2200,5.3800,18.8000,0.0000,0.0000,-0.0000,1486.0000,1060.0000,1500.0000,1999.0000
236923.7100,2.0000,1998.0000,1073.0000,1953.0000,-23.0000,-156.0000,-13.0000,629.0000,-902.0000,10283.0000,0.5124,-0.5077,0.0769,0.6883,118.3900,-46.4200,-83.8400,-0.4600,5.1600,18.6000,0.0000,0.0000,-0.0000,1486.0000,1060.0000,1500.0000,1999.0000
236940.4270,2.0000,1998.0000,1073.0000,1953.0000,-15.0000,-176.0000,-5.0000,601.0000,-913.0000,11078.0000,0.5144,-0.4922,0.0625,0.6994,118.3900,-46.2600,-83.4100,-0.7500,4.8800,18.3300,0.0000,0.0000,-0.0000,1486.0000,1060.0000,1500.0000,1999.0000
236957.3390,2.0000,1998.0000,1087.0000,1947.0000,-9.0000,-188.0000,5.0000,710.0000,-952.0000,12122.0000,0.5157,-0.4739,0.0478,0.7121,118.3800,-46.1100,-82.9800,-1.2000,4.3400,17.9800,0.0000,0.0000,-0.0000,1480.0000,1074.0000,1500.0000,1999.0000
236974.3810,2.0000,1998.0000,1093.0000,1945.0000,-8.0000,-194.0000,11.0000,981.0000,-1024.0000,13094.0000,0.5162,-0.4541,0.0334,0.7254,118.3800,-46.1100,-82.9800,-1.2000,4.3400,17.9800,0.0000,0.0000,-0.0000,1480.0000,1074.0000,1500.0000,1999.0000
236991.0780,2.0000,1998.0000,1093.0000,1945.0000,-7.0000,-192.0000,18.0000,1127.0000,-974.0000,14091.0000,0.5157,-0.4336,0.0195,0.7387,118.3700,-45.9800,-82.5700,-1.6800,3.8000,17.5200,0.0000,0.0000,-0.0000,1480.0000,1074.0000,1500.0000,1999.0000
237007.9050,2.0000,1998.0000,1093.0000,1945.0000,-10.0000,-185.0000,24.0000,1062.0000,-941.0000,14984.0000,0.5138,-0.4133,0.0058,0.7517,118.3500,-45.8700,-82.1700,-2.2200,3.2500,16.9300,0.0000,0.0000,-0.0000,1480.0000,1074.0000,1500.0000,1999.0000
237024.9140,2.0000,1998.0000,1093.0000,1945.0000,-20.0000,-174.0000,28.0000,1230.0000,-872.0000,15356.0000,0.5106,-0.3942,-0.0077,0.7641,118.3200,-45.7600,-81.8000,-2.7900,2.7700,16.2200,0.0000,0.0000,-0.0000,1480.0000,1074.0000,1500.0000,1999.0000
237041.5840,2.0000,1998.0000,1093.0000,1945.0000,-24.0000,-157.0000,27.0000,1119.0000,-835.0000,15428.0000,0.5064,-0.3776,-0.0206,0.7749,118.2700,-45.6700,-81.4500,-3.3800,2.2900,15.4200,0.0000,0.0000,-0.0000,1480.0000,1074.0000,1500.0000,1999.0000
237058.6220,2.0000,1998.0000,1093.0000,1945.0000,-32.0000,-133.0000,23.0000,911.0000,-735.0000,15006.0000,0.5017,-0.3631,-0.0331,0.7844,118.2200,-45.5900,-81.1000,-4.0100,1.7000,14.5900,0.0000,0.0000,-0.0000,1480.0000,1074.0000,1500.0000,1999.0000
237075.6800,2.0000,1998.0000,1093.0000,1945.0000,-39.0000,-108.0000,17.0000,884.0000,-607.0000,14111.0000,0.4973,-0.3519,-0.0451,0.7918,118.2200,-45.5900,-81.1000,-4.0100,1.7000,14.5900,0.0000,0.0000,-0.0000,1480.0000,1074.0000,1500.0000,1999.0000
237092.5720,2.0000,1998.0000,1708.0000,1316.0000,-43.0000,-85.0000,10.0000,610.0000,-344.0000,12983.0000,0.4933,-0.3437,-0.0563,0.7971,118.1500,-45.5300,-80.7700,-4.5700,1.2500,13.7700,0.0000,0.0000,-0.0000,1487.0000,1699.0000,1500.0000,1999.0000
237109.4690,2.0000,1998.0000,1709.0000,1315.0000,-46.0000,-63.0000,4.0000,451.0000,-444.0000,12121.0000,0.4898,-0.3386,-0.0665,0.8006,118.0800,-45.4800,-80.4700,-5.0600,0.9200,13.0300,0.0000,0.0000,-0.0000,1487.0000,1699.0000,1500.0000,1999.0000
237126.4820,2.0000,1998.0000,1709.0000,1315.0000,-45.0000,-36.0000,0.0000,541.0000,-521.0000,11493.0000,0.4871,-0.3363,-0.0752,0.8025,118.0000,-45.4300,-80.1800,-5.4500,0.6900,12.3400,0.0000,0.0000,-0.0000,1487.0000,1699.0000,1500.0000,1999.0000
237143.4620,2.0000,1998.0000,1709.0000,1315.0000,-37.0000,-2.0000,-4.0000,847.0000,-515.0000,10632.0000,0.4854,-0.3375,-0.0814,0.8024,117.9100,-45.3900,-79.9100,-5.8300,0.4200,11.7100,0.0000,0.0000,-0.0000,1487.0000,1699.0000,1500.0000,1999.0000
237160.3640,2.0000,1998.0000,1709.0000,1315.0000,-20.0000,35.0000,-4.0000,695.0000,-407.0000,9941.0000,0.4851,-0.3414,-0.0838,0.8007,117.8100,-45.3700,-79.6300,-6.3300,-0.0400,11.1800,0.0000,0.0000,-0.0000,1487.0000,1699.0000,1500.0000,1999.0000
237177.1980,2.0000,1998.0000,1709.0000,1315.0000,-6.0000,100.0000,2.0000,635.0000,-482.0000,8969.0000,0.4858,-0.3498,-0.0808,0.7970,117.8100,-45.3700,-79.6300,-6.3300,-0.0400,11.1800,0.0000,0.0000,-0.0000,1487.0000,1699.0000,1500.0000,1999.0000
237194.1180,2.0000,1998.0000,1758.0000,1266.0000,6.0000,166.0000,10.0000,631.0000,-525.0000,6223.0000,0.4870,-0.3654,-0.0707,0.7901,117.7000,-45.3600,-79.3600,-6.7400,-0.4600,10.7200,0.0000,0.0000,-0.0000,1487.0000,1749.0000,1500.0000,1999.0000
237211.1940,2.0000,1998.0000,1759.0000,1265.0000,11.0000,217.0000,17.0000,958.0000,-392.0000,2097.0000,0.4878,-0.3877,-0.0549,0.7802,117.5900,-45.3600,-79.1100,-6.9600,-0.8700,10.4400,0.0000,0.0000,-0.0000,1487.0000,1749.0000,1500.0000,1999.0000
237227.8800,2.0000,1998.0000,1759.0000,1265.0000,13.0000,252.0000,25.0000,935.0000,-202.0000,-2481.0000,0.4879,-0.4135,-0.0354,0.7679,117.4900,-45.3600,-78.8300,-6.8000,-1.2400,10.5100,0.0000,0.0000,-0.0000,1487.0000,1749.0000,1500.0000,1999.0000
237244.8530,2.0000,1998.0000,1759.0000,1265.0000,14.0000,276.0000,31.0000,157.0000,86.0000,-7384.0000,0.4863,-0.4430,-0.0128,0.7531,117.4100,-45.3700,-78.5200,-6.3800,-1.5800,10.8800,0.0000,0.0000,-0.0000,1487.0000,1749.0000,1500.0000,1999.0000
237261.7070,2.0000,1998.0000,1759.0000,1265.0000,8.0000,247.0000,39.0000,-44.0000,278.0000,-11550.0000,0.4829,-0.4717,0.0095,0.7377,117.3100,-45.4300,-78.1700,-5.9900,-1.8600,11.4400,0.0000,0.0000,-0.0000,1487.0000,1749.0000,1500.0000,1999.0000
237278.3550,2.0000,1998.0000,1759.0000,1265.0000,-4.0000,174.0000,33.0000,-129.0000,157.0000,-13164.0000,0.4782,-0.4939,0.0266,0.7257,117.3100,-45.4300,-78.1700,-5.9900,-1.8600,11.4400,0.0000,0.0000,-0.0000,1487.0000,1749.0000,1500.0000,1999.0000
237295.4480,2.0000,1997.0000,1759.0000,1265.0000,-19.0000,104.0000,25.0000,34.0000,146.0000,-11930.0000,0.4730,-0.5093,0.0370,0.7180,117.2200,-45.4800,-77.8200,-5.4000,-1.8800,11.6700,0.0000,0.0000,-0.0000,1487.0000,1749.0000,1500.0000,1998.0000
237312.3300,2.0000,1997.0000,1759.0000,1265.0000,-21.0000,52.0000,18.0000,-124.0000,101.0000,-9740.0000,0.4684,-0.5188,0.0415,0.7140,117.1500,-45.5400,-77.4900,-4.8800,-1.8700,11.9300,0.0000,0.0000,-0.0000,1487.0000,1749.0000,1500.0000,1998.0000
237329.1490,2.0000,1997.0000,1759.0000,1265.0000,-28.0000,9.0000,13.0000,228.0000,287.0000,-7225.0000,0.4644,-0.5229,0.0414,0.7136,117.0900,-45.5800,-77.1800,-4.5700,-1.9500,12.2100,0.0000,0.0000,-0.0000,1487.0000,1749.0000,1500.0000,1998.0000
237345.7320,2.0000,1997.0000,1759.0000,1265.0000,-25.0000,-1.0000,8.0000,439.0000,349.0000,-5443.0000,0.4609,-0.5249,0.0391,0.7145,117.0200,-45.6500,-76.8900,-4.5900,-2.2500,12.4800,0.0000,0.0000,-0.0000,1487.0000,1749.0000,1500.0000,1998.0000
237362.5880,2.0000,1997.0000,1759.0000,1265.0000,-23.0000,2.0000,4.0000,81.0000,204.0000,-4251.0000,0.4578,-0.5262,0.0365,0.7157,116.9000,-45.7700,-76.6000,-4.9800,-2.8100,12.7100,0.0000,0.0000,-0.0000,1487.0000,1749.0000,1500.0000,1998.0000
237379.3420,2.0000,1997.0000,1759.0000,1265.0000,-18.0000,25.0000,1.0000,81.0000,50.0000,-3202.0000,0.4554,-0.5289,0.0349,0.7153,116.9000,-45.7700,-76.6000,-4.9800,-2.8100,12.7100,0.0000,0.0000,-0.0000,1487.0000,1749.0000,1500.0000,1998.0000
237396.5180,2.0000,1997.0000,1759.0000,1265.0000,-14.0000,60.0000,-1.0000,-34.0000,-86.0000,-2823.0000,0.4534,-0.5347,0.0357,0.7122,116.7800,-45.8900,-76.3300,-5.3800,-3.3400,12.9300,0.0000,0.0000,-0.0000,1487.0000,1749.0000,1500.0000,1998.0000
237413.2510,2.0000,1997.0000,1758.0000,1264.0000,-3.0000,100.0000,-1.0000,485.0000,-134.0000,-2760.0000,0.4516,-0.5438,0.0397,0.7063,116.6600,-46.0100,-76.0600,-5.7700,-3.8500,13.1000,0.0000,0.0000,-0.0000,1488.0000,1749.0000,1500.0000,1998.0000
237430.0270,2.0000,1997.0000,1758.0000,1264.0000,6.0000,134.0000,0.0000,388.0000,-93.0000,-4187.0000,0.4506,-0.5557,0.0469,0.6971,116.5400,-46.1400,-75.8000,-6.1000,-4.3200,13.2800,0.0000,0.0000,-0.0000,1488.0000,1749.0000,1500.0000,1998.0000
237446.6390,2.0000,1997.0000,1758.0000,1264.0000,-3.0000,151.0000,1.0000,-31.0000,-94.0000,-6412.0000,0.4490,-0.5702,0.0562,0.6856,116.4000,-46.2800,-75.5500,-6.3600,-4.6200,13.4800,0.0000,0.0000,-0.0000,1488.0000,1749.0000,1500.0000,1998.0000
237463.3540,2.0000,1997.0000,1758.0000,1264.0000,2.0000,148.0000,3.0000,444.0000,-83.0000,-7932.0000,0.4466,-0.5855,0.0655,0.6734,116.2100,-46.4600,-75.3000,-6.5800,-4.7300,13.7100,0.0000,0.0000,-0.0000,1488.0000,1749.0000,1500.0000,1998.0000
237480.1950,2.0000,1997.0000,1758.0000,1264.0000,2.0000,137.0000,7.0000,490.0000,129.0000,-8835.0000,0.4436,-0.5999,0.0743,0.6617,116.2100,-46.4600,-75.3000,-6.5800,-4.7300,13.7100,0.0000,0.0000,-0.0000,1488.0000,1749.0000,1500.0000,1998.0000
237497.2630,2.0000,1997.0000,1758.0000,1264.0000,-6.0000,98.0000,7.0000,-57.0000,180.0000,-8985.0000,0.4404,-0.6115,0.0816,0.6522,116.0300,-46.6200,-75.0600,-6.6500,-4.7200,13.9600,0.0000,0.0000,-0.0000,1488.0000,1749.0000,1500.0000,1998.0000
237514.1820,2.0000,1997.0000,1758.0000,1264.0000,-7.0000,79.0000,10.0000,-152.0000,2.0000,-8580.0000,0.4370,-0.6204,0.0866,0.6455,115.8700,-46.7600,-74.8200,-6.6700,-4.6100,14.1500,0.0000,0.0000,-0.0000,1488.0000,1749.0000,1500.0000,1998.0000
237531.2060,2.0000,1997.0000,1758.0000,1264.0000,-8.0000,55.0000,10.0000,57.0000,-296.0000,-7459.0000,0.4335,-0.6274,0.0903,0.6406,115.7200,-46.9000,-74.6000,-6.6600,-4.5000,14.3200,0.0000,0.0000,-0.0000,1488.0000,1749.0000,1500.0000,1998.0000
237547.9460,2.0000,1997.0000,1758.0000,1264.0000,-18.0000,41.0000,12.0000,-22.0000,-278.0000,-6454.0000,0.4296,-0.6328,0.0922,0.6376,115.5400,-47.0300,-74.3700,-6.7400,-4.4100,14.5300,0.0000,0.0000,-0.0000,1488.0000,1749.0000,1500.0000,1998.0000
237565.2980,2.0000,1997.0000,1758.0000,1264.0000,-16.0000,44.0000,14.0000,-556.0000,-130.0000,-5691.0000,0.4251,-0.6380,0.0933,0.6352,115.3400,-47.1800,-74.1300,-6.9500,-4.2800,14.7100,0.0000,0.0000,-0.0000,1488.0000,1749.0000,1500.0000,1998.0000
237582.0330,2.0000,1997.0000,1758.0000,1264.0000,-15.0000,61.0000,17.0000,-616.0000,164.0000,-5186.0000,0.4205,-0.6436,0.0954,0.6323,115.3400,-47.1800,-74.1300,-6.9500,-4.2800,14.7100,0.0000,0.0000,-0.0000,1488.0000,1749.0000,1500.0000,1998.0000
237598.8090,2.0000,1997.0000,1753.0000,1259.0000,-4.0000,88.0000,17.0000,150.0000,235.0000,-4828.0000,0.4161,-0.6510,0.0999,0.6270,115.1400,-47.3100,-73.8900,-7.1800,-4.1700,14.8500,0.0000,0.0000,-0.0000,1493.0000,1749.0000,1500.0000,1998.0000
237615.4950,2.0000,1997.0000,1753.0000,1259.0000,-1.0000,111.0000,19.0000,250.0000,224.0000,-5275.0000,0.4118,-0.6600,0.1065,0.6193,114.9500,-47.4300,-73.6500,-7.4000,-4.0900,15.0600,0.0000,0.0000,-0.0000,1493.0000,1749.0000,1500.0000,1998.0000
237632.0380,2.0000,1997.0000,1753.0000,1259.0000,-3.0000,114.0000,17.0000,59.0000,148.0000,-6412.0000,0.4072,-0.6702,0.1136,0.6100,114.7700,-47.5400,-73.4000,-7.5400,-3.9900,15.2700,0.0000,0.0000,-0.0000,1493.0000,1749.0000,1500.0000,1998.0000
237649.0180,2.0000,1997.0000,1753.0000,1259.0000,-2.0000,115.0000,17.0000,-150.0000,142.0000,-7402.0000,0.4024,-0.6808,0.1208,0.6000,114.5800,-47.6500,-73.1500,-7.5400,-3.7600,15.4200,0.0000,0.0000,-0.0000,1493.0000,1749.0000,1500.0000,1998.0000
237665.8040,2.0000,1997.0000,1753.0000,1259.0000,-7.0000,105.0000,15.0000,495.0000,310.0000,-7885.0000,0.3975,-0.6906,0.1274,0.5906,114.3700,-47.7600,-72.9000,-7.4600,-3.4000,15.5800,0.0000,0.0000,-0.0000,1493.0000,1749.0000,1500.0000,1998.0000
237682.8650,2.0000,1997.0000,1753.0000,1259.0000,-8.0000,80.0000,12.0000,160.0000,81.0000,-7930.0000,0.3926,-0.6990,0.1319,0.5830,114.3700,-47.7600,-72.9000,-7.4600,-3.4000,15.5800,0.0000,0.0000,-0.0000,1493.0000,1749.0000,1500.0000,1998.0000
237699.8400,2.0000,1997.0000,1753.0000,1259.0000,-8.0000,67.0000,10.0000,576.0000,206.0000,-7055.0000,0.3883,-0.7058,0.1353,0.5768,114.1700,-47.8600,-72.6400,-7.3400,-3.0300,15.7300,0.0000,0.0000,-0.0000,1493.0000,1749.0000,1500.0000,1998.0000
237716.6820,2.0000,1997.0000,1757.0000,1263.0000,-9.0000,59.0000,6.0000,370.0000,133.0000,-6351.0000,0.3845,-0.7118,0.1378,0.5713,113.9800,-47.9500,-72.3900,-7.2600,-2.7500,15.8700,0.0000,0.0000,-0.0000,1489.0000,1749.0000,1500.0000,1998.0000
237733.2910,2.0000,1997.0000,1757.0000,1263.0000,-7.0000,61.0000,5.0000,-108.0000,110.0000,-6128.0000,0.3813,-0.7171,0.1401,0.5663,113.8100,-48.0300,-72.1300,-7.2300,-2.5400,16.0400,0.0000,0.0000,-0.0000,1489.0000,1749.0000,1500.0000,1998.0000
237749.8980,2.0000,1997.0000,1757.0000,1263.0000,0.0000,73.0000,6.0000,-271.0000,165.0000,-6133.0000,0.3782,-0.7229,0.1430,0.5603,113.6200,-48.1100,-71.8600,-7.1400,-2.3300,16.1700,0.0000,0.0000,-0.0000,1489.0000,1749.0000,1500.0000,1998.0000
237766.6420,2.0000,1997.0000,1757.0000,1263.0000,-1.0000,76.0000,5.0000,-256.0000,-24.0000,-6168.0000,0.3753,-0.7292,0.1464,0.5532,113.4400,-48.1900,-71.5800,-6.9500,-2.1000,16.3000,0.0000,0.0000,-0.0000,1489.0000,1749.0000,1500.0000,1998.0000
237783.3250,2.0000,1997.0000,1757.0000,1263.0000,-6.0000,77.0000,4.0000,-92.0000,-40.0000,-6495.0000,0.3720,-0.7357,0.1495,0.5459,113.4400,-48.1900,-71.5800,-6.9500,-2.1000,16.3000,0.0000,0.0000,-0.0000,1489.0000,1749.0000,1500.0000,1998.0000
237800.3700,2.0000,1997.0000,1757.0000,1263.0000,-4.0000,83.0000,5.0000,-120.0000,341.0000,-6887.0000,0.3685,-0.7425,0.1525,0.5382,113.2600,-48.2600,-71.2900,-6.7500,-1.8800,16.4100,0.0000,0.0000,-0.0000,1489.0000,1749.0000,1500.0000,1998.0000
237817.2190,2.0000,1998.0000,1759.0000,1265.0000,-5.0000,77.0000,2.0000,-136.0000,383.0000,-6908.0000,0.3648,-0.7495,0.1558,0.5300,113.1000,-48.3200,-71.0100,-6.5400,-1.6300,16.5100,0.0000,0.0000,-0.0000,1487.0000,1749.0000,1500.0000,1999.0000
237833.9400,2.0000,1998.0000,1759.0000,1265.0000,-2.0000,76.0000,4.0000,-611.0000,144.0000,-6743.0000,0.3618,-0.7558,0.1588,0.5222,112.9500,-48.3800,-70.7200,-6.3500,-1.3900,16.5500,0.0000,0.0000,-0.0000,1487.0000,1749.0000,1500.0000,1999.0000
237850.5050,2.0000,1998.0000,1759.0000,1265.0000,-5.0000,90.0000,6.0000,-188.0000,112.0000,-6866.0000,0.3586,-0.7622,0.1626,0.5139,112.8000,-48.4400,-70.4300,-6.0700,-1.1500,16.5200,0.0000,0.0000,-0.0000,1487.0000,1749.0000,1500.0000,1999.0000
237867.4430,2.0000,1998.0000,1759.0000,1265.0000,-5.0000,83.0000,6.0000,110.0000,256.0000,-7419.0000,0.3550,-0.7689,0.1668,0.5049,112.6600,-48.4900,-70.1400,-5.6500,-0.8600,16.5100,0.0000,0.0000,-0.0000,1487.0000,1749.0000,1500.0000,1999.0000
237884.2160,2.0000,1998.0000,1759.0000,1265.0000,-11.0000,76.0000,5.0000,-2.0000,274.0000,-7592.0000,0.3512,-0.7754,0.1703,0.4964,112.6600,-48.4900,-70.1400,-5.6500,-0.8600,16.5100,0.0000,0.0000,-0.0000,1487.0000,1749.0000,1500.0000,1999.0000
237901.1230,2.0000,1998.0000,1759.0000,1265.0000,-7.0000,56.0000,4.0000,19.0000,296.0000,-7504.0000,0.3477,-0.7805,0.1728,0.4900,112.5300,-48.5400,-69.8500,-5.2400,-0.5700,16.5000,0.0000,0.0000,-0.0000,1487.0000,1749.0000,1500.0000,1999.0000
237917.6750,2.0000,1998.0000,1759.0000,1265.0000,-4.0000,53.0000,5.0000,-44.0000,242.0000,-6724.0000,0.3449,-0.7846,0.1748,0.4846,112.4200,-48.5700,-69.5700,-4.8700,-0.3000,16.4900,0.0000,0.0000,-0.0000,1487.0000,1749.0000,1500.0000,1999.0000
237934.4680,2.0000,1998.0000,1759.0000,1265.0000,-3.0000,57.0000,0.0000,-355.0000,57.0000,-5998.0000,0.3424,-0.7889,0.1767,0.4787,112.3200,-48.6000,-69.2800,-4.5800,-0.1000,16.4700,0.0000,0.0000,-0.0000,1487.0000,1749.0000,1500.0000,1999.0000
237951.2430,2.0000,1998.0000,1759.0000,1265.0000,-2.0000,67.0000,0.0000,-9.0000,155.0000,-5951.0000,0.3404,-0.7934,0.1795,0.4716,112.2300,-48.6300,-68.9900,-4.2000,0.0600,16.4700,0.0000,0.0000,-0.0000,1487.0000,1749.0000,1500.0000,1999.0000
237968.3130,2.0000,1998.0000,1759.0000,1265.0000,-1.0000,77.0000,0.0000,-454.0000,290.0000,-6226.0000,0.3382,-0.7987,0.1831,0.4627,112.1500,-48.6600,-68.6900,-3.6700,0.2800,16.4600,0.0000,0.0000,-0.0000,1487.0000,1749.0000,1500.0000,1999.0000
237985.2380,2.0000,1998.0000,1759.0000,1265.0000,1.0000,87.0000,2.0000,-321.0000,254.0000,-6492.0000,0.3358,-0.8044,0.1873,0.4528,112.1500,-48.6600,-68.6900,-3.6700,0.2800,16.4600,0.0000,0.0000,-0.0000,1487.0000,1749.0000,1500.0000,1999.0000
238002.2970,2.0000,1998.0000,1759.0000,1265.0000,0.0000,92.0000,3.0000,-39.0000,35.0000,-7119.0000,0.3331,-0.8106,0.1924,0.4415,112.0900,-48.6800,-68.3900,-3.2000,0.5100,16.4000,0.0000,0.0000,-0.0000,1487.0000,1749.0000,1500.0000,1999.0000
238019.1000,2.0000,1998.0000,1759.0000,1265.0000,-5.0000,89.0000,6.0000,-540.0000,29.0000,-7910.0000,0.3302,-0.8164,0.1975,0.4307,112.0400,-48.7000,-68.1000,-2.7200,0.7400,16.3000,0.0000,0.0000,-0.0000,1487.0000,1749.0000,1500.0000,1999.0000
238036.1480,2.0000,1998.0000,1759.0000,1265.0000,-6.0000,89.0000,9.0000,-376.0000,72.0000,-8005.0000,0.3263,-0.8222,0.2024,0.4202,112.0000,-48.7100,-67.8100,-2.2600,1.0000,16.1300,0.0000,0.0000,-0.0000,1487.0000,1749.0000,1500.0000,1999.0000
238053.2090,2.0000,1998.0000,1759.0000,1265.0000,-5.0000,65.0000,9.0000,-471.0000,187.0000,-8021.0000,0.3226,-0.8269,0.2067,0.4117,111.9800,-48.7200,-67.5300,-1.7000,1.3000,15.9300,0.0000,0.0000,-0.0000,1487.0000,1749.0000,1500.0000,1999.0000
238070.0180,2.0000,1998.0000,1759.0000,1265.0000,-5.0000,58.0000,9.0000,-410.0000,147.0000,-7652.0000,0.3195,-0.8305,0.2102,0.4049,111.9800,-48.7200,-67.2300,-1.0500,1.6300,15.7300,0.0000,0.0000,-0.0000,1487.0000,1749.0000,1500.0000,1999.0000
238086.7720,2.0000,1998.0000,1759.0000,1265.0000,-4.0000,52.0000,13.0000,136.0000,79.0000,-7104.0000,0.3163,-0.8339,0.2136,0.3986,111.9800,-48.7200,-67.2300,-1.0500,1.6300,15.7300,0.0000,0.0000,-0.0000,1487.0000,1749.0000,1500.0000,1999.0000
238103.8740,2.0000,1998.0000,1759.0000,1265.0000,-11.0000,51.0000,16.0000,-182.0000,-135.0000,-6842.0000,0.3128,-0.8369,0.2170,0.3933,112.0000,-48.7100,-66.9500,-0.4800,1.8800,15.5800,0.0000,0.0000,-0.0000,1487.0000,1749.0000,1500.0000,1999.0000
238120.6040,2.0000,1998.0000,1759.0000,1265.0000,-14.0000,54.0000,17.0000,-351.0000,51.0000,-6668.0000,0.3089,-0.8398,0.2206,0.3881,112.0200,-48.7000,-66.6700,0.0200,2.0700,15.4300,0.0000,0.0000,-0.0000,1487.0000,1749.0000,1500.0000,1999.0000
238137.6630,2.0000,1998.0000,1759.0000,1265.0000,-19.0000,63.0000,18.0000,-392.0000,102.0000,-6294.0000,0.3037,-0.8436,0.2246,0.3817,112.0500,-48.6800,-66.4000,0.4400,2.2300,15.2800,0.0000,0.0000,-0.0000,1487.0000,1749.0000,1500.0000,1999.0000
238154.5860,2.0000,1998.0000,1759.0000,1265.0000,-20.0000,70.0000,19.0000,-469.0000,80.0000,-6429.0000,0.2981,-0.8474,0.2283,0.3755,112.1100,-48.6600,-66.1100,0.9500,2.4300,15.1500,0.0000,0.0000,-0.0000,1487.0000,1749.0000,1500.0000,1999.0000
238171.4810,2.0000,1998.0000,1759.0000,1265.0000,-20.0000,78.0000,19.0000,-489.0000,144.0000,-6956.0000,0.2918,-0.8519,0.2327,0.3674,112.1900,-48.6300,-65.8300,1.5800,2.7200,14.9600,0.0000,0.0000,-0.0000,1487.0000,1749.0000,1500.0000,1999.0000
238188.1850,2.0000,1998.0000,1759.0000,1265.0000,-20.0000,72.0000,19.0000,-713.0000,214.0000,-7101.0000,0.2855,-0.8561,0.2365,0.3601,112.1900,-48.6300,-65.8300,1.5800,2.7200,14.9600,0.0000,0.0000,-0.0000,1487.0000,1749.0000,1500.0000,1999.0000
238205.0480,2.0000,1998.0000,1759.0000,1265.0000,-15.0000,78.0000,17.0000,-647.0000,419.0000,-7157.0000,0.2798,-0.8601,0.2407,0.3522,112.2700,-48.6000,-65.5500,2.1400,3.0100,14.6800,0.0000,0.0000,-0.0000,1487.0000,1749.0000,1500.0000,1999.0000
