t_ms,msp,motor,servo0,servo1,gyro_p,gyro_q,gyro_r,acc_x,acc_y,acc_z,qw,qx,qy,qz,pos_n,pos_e,pos_d,vel_n,vel_e,vel_d,tgtpos_n,tgtpos_e,tgtpos_d,rcData0,rcData1,rcData2,rcData3
183852.1500,3.0000,1434.0000,1476.0000,1518.0000,10.0000,4.0000,4.0000,19.0000,-32.0000,1778.0000,0.1541,-0.0540,-0.2075,0.9645,162.8000,-34.3500,-99.1700,-19.4800,-3.4600,0.7800,0.0000,0.0000,-0.0000,1500.0000,1498.0000,1500.0000,1465.0000
183868.8020,3.0000,1434.0000,1475.0000,1517.0000,9.0000,5.0000,3.0000,75.0000,3.0000,1752.0000,0.1539,-0.0548,-0.2057,0.9649,162.8000,-34.3500,-99.1700,-19.4800,-3.4600,0.7800,0.0000,0.0000,-0.0000,1500.0000,1500.0000,1500.0000,1465.0000
183885.4020,3.0000,1434.0000,1474.0000,1516.0000,7.0000,5.0000,2.0000,88.0000,-152.0000,1751.0000,0.1540,-0.0555,-0.2044,0.9651,162.4000,-34.4100,-99.1500,-19.5200,-3.4100,0.8200,0.0000,0.0000,-0.0000,1500.0000,1500.0000,1500.0000,1465.0000
183902.1460,3.0000,1434.0000,1473.0000,1515.0000,6.0000,5.0000,2.0000,88.0000,-117.0000,1592.0000,0.1542,-0.0561,-0.2030,0.9653,162.0100,-34.4800,-99.1300,-19.5500,-3.3700,0.8600,0.0000,0.0000,-0.0000,1500.0000,1500.0000,1500.0000,1465.0000
183918.8370,3.0000,1433.0000,1472.0000,1514.0000,3.0000,4.0000,1.0000,29.0000,-103.0000,1443.0000,0.1544,-0.0567,-0.2021,0.9655,161.6200,-34.5400,-99.1100,-19.5600,-3.3400,0.9100,0.0000,0.0000,-0.0000,1500.0000,1500.0000,1500.0000,1464.0000
183935.7200,3.0000,1434.0000,1469.0000,1511.0000,-2.0000,3.0000,0.0000,12.0000,-213.0000,1554.0000,0.1546,-0.0572,-0.2016,0.9655,161.2300,-34.6000,-99.0900,-19.5800,-3.3100,0.9600,0.0000,0.0000,-0.0000,1500.0000,1500.0000,1500.0000,1465.0000
183952.3690,3.0000,1434.0000,1466.0000,1508.0000,-8.0000,4.0000,1.0000,63.0000,-228.0000,1757.0000,0.1548,-0.0577,-0.2019,0.9654,161.2300,-34.6000,-99.0900,-19.5800,-3.3100,0.9600,0.0000,0.0000,-0.0000,1500.0000,1500.0000,1500.0000,1465.0000
183969.0780,3.0000,1434.0000,1461.0000,1505.0000,-15.0000,5.0000,1.0000,31.0000,-171.0000,1726.0000,0.1548,-0.0585,-0.2029,0.9651,160.8100,-34.6700,-99.0600,-19.6100,-3.2700,1.0000,0.0000,0.0000,-0.0000,1500.0000,1500.0000,1500.0000,1465.0000
183985.7710,3.0000,1434.0000,1459.0000,1503.0000,-18.0000,5.0000,1.0000,29.0000,-289.0000,1713.0000,0.1548,-0.0595,-0.2049,0.9646,160.4100,-34.7300,-99.0400,-19.6400,-3.2400,1.0300,0.0000,0.0000,-0.0000,1500.0000,1498.0000,1500.0000,1465.0000
184002.3450,3.0000,1434.0000,1461.0000,1503.0000,-17.0000,3.0000,2.0000,-3.0000,-282.0000,1601.0000,0.1548,-0.0605,-0.2070,0.9641,160.0200,-34.7900,-99.0200,-19.6500,-3.2100,1.0700,0.0000,0.0000,-0.0000,1500.0000,1498.0000,1500.0000,1465.0000
184018.9060,3.0000,1435.0000,1460.0000,1502.0000,-19.0000,3.0000,5.0000,57.0000,-209.0000,1684.0000,0.1545,-0.0611,-0.2092,0.9637,159.6400,-34.8500,-99.0000,-19.6500,-3.1800,1.1000,0.0000,0.0000,-0.0000,1500.0000,1500.0000,1500.0000,1466.0000
184035.5150,3.0000,1433.0000,1461.0000,1503.0000,-18.0000,3.0000,8.0000,76.0000,-310.0000,1887.0000,0.1538,-0.0623,-0.2117,0.9631,159.2400,-34.9100,-98.9700,-19.6700,-3.1400,1.1400,0.0000,0.0000,-0.0000,1500.0000,1500.0000,1500.0000,1464.0000
184052.0530,3.0000,1433.0000,1464.0000,1506.0000,-13.0000,2.0000,9.0000,79.0000,-337.0000,2098.0000,0.1527,-0.0634,-0.2143,0.9627,159.2400,-34.9100,-98.9700,-19.6700,-3.1400,1.1400,0.0000,0.0000,-0.0000,1500.0000,1500.0000,1500.0000,1465.0000
184068.6090,3.0000,1434.0000,1467.0000,1507.0000,-8.0000,2.0000,10.0000,-2.0000,-473.0000,2380.0000,0.1515,-0.0644,-0.2162,0.9624,158.8400,-34.9700,-98.9500,-19.7100,-3.1100,1.1500,0.0000,0.0000,-0.0000,1500.0000,1500.0000,1500.0000,1466.0000
184085.2250,3.0000,1434.0000,1470.0000,1512.0000,-2.0000,3.0000,10.0000,-20.0000,-353.0000,2333.0000,0.1503,-0.0653,-0.2170,0.9623,158.4300,-35.0300,-98.9200,-19.7400,-3.0600,1.1200,0.0000,0.0000,-0.0000,1500.0000,1498.0000,1500.0000,1465.0000
184101.8130,3.0000,1434.0000,1472.0000,1512.0000,1.0000,1.0000,10.0000,-10.0000,-141.0000,2106.0000,0.1490,-0.0661,-0.2173,0.9624,158.0400,-35.0900,-98.9000,-19.7600,-3.0100,1.1000,0.0000,0.0000,-0.0000,1500.0000,1498.0000,1500.0000,1465.0000
184118.4270,3.0000,1434.0000,1471.0000,1511.0000,1.0000,1.0000,10.0000,43.0000,-223.0000,2200.0000,0.1477,-0.0669,-0.2175,0.9625,157.6600,-35.1500,-98.8800,-19.7700,-2.9500,1.1000,0.0000,0.0000,-0.0000,1500.0000,1498.0000,1500.0000,1465.0000
184135.1310,3.0000,1434.0000,1467.0000,1509.0000,-5.0000,2.0000,10.0000,111.0000,-151.0000,2123.0000,0.1465,-0.0677,-0.2182,0.9625,157.6600,-35.1500,-98.8800,-19.7700,-2.9500,1.1000,0.0000,0.0000,-0.0000,1500.0000,1500.0000,1500.0000,1465.0000
184151.6940,3.0000,1433.0000,1464.0000,1506.0000,-8.0000,2.0000,11.0000,107.0000,-174.0000,1910.0000,0.1451,-0.0687,-0.2196,0.9623,157.2600,-35.2000,-98.8600,-19.8000,-2.9000,1.1000,0.0000,0.0000,-0.0000,1498.0000,1500.0000,1500.0000,1464.0000
184168.3500,3.0000,1434.0000,1462.0000,1504.0000,-13.0000,1.0000,12.0000,67.0000,-297.0000,1806.0000,0.1436,-0.0696,-0.2213,0.9621,156.8500,-35.2600,-98.8300,-19.8500,-2.8500,1.1200,0.0000,0.0000,-0.0000,1500.0000,1500.0000,1500.0000,1465.0000
184185.0810,3.0000,1434.0000,1464.0000,1502.0000,-13.0000,-1.0000,14.0000,-8.0000,-297.0000,1719.0000,0.1418,-0.0703,-0.2233,0.9618,156.4400,-35.3100,-98.8100,-19.8800,-2.8200,1.1400,0.0000,0.0000,-0.0000,1500.0000,1498.0000,1500.0000,1465.0000
184201.6750,3.0000,1435.0000,1462.0000,1502.0000,-14.0000,-1.0000,16.0000,28.0000,-308.0000,1639.0000,0.1398,-0.0711,-0.2253,0.9616,156.0500,-35.3700,-98.7800,-19.8900,-2.7900,1.1800,0.0000,0.0000,-0.0000,1500.0000,1500.0000,1500.0000,1466.0000
184218.2310,3.0000,1434.0000,1463.0000,1503.0000,-14.0000,-1.0000,18.0000,34.0000,-296.0000,1456.0000,0.1375,-0.0719,-0.2275,0.9613,155.6600,-35.4200,-98.7600,-19.8900,-2.7600,1.2200,0.0000,0.0000,-0.0000,1500.0000,1500.0000,1500.0000,1465.0000
184234.8250,3.0000,1434.0000,1467.0000,1505.0000,-9.0000,-2.0000,18.0000,43.0000,-272.0000,1442.0000,0.1350,-0.0726,-0.2293,0.9612,155.6600,-35.4200,-98.7600,-19.8900,-2.7600,1.2200,0.0000,0.0000,-0.0000,1500.0000,1500.0000,1500.0000,1465.0000
184251.3560,3.0000,1434.0000,1469.0000,1505.0000,-6.0000,-3.0000,19.0000,30.0000,-345.0000,1671.0000,0.1325,-0.0732,-0.2305,0.9612,155.2700,-35.4700,-98.7300,-19.9000,-2.7400,1.2800,0.0000,0.0000,-0.0000,1500.0000,1498.0000,1500.0000,1465.0000
184267.9240,3.0000,1433.0000,1468.0000,1508.0000,-3.0000,0.0000,20.0000,-15.0000,-284.0000,1839.0000,0.1299,-0.0739,-0.2316,0.9613,154.8600,-35.5300,-98.7100,-19.9300,-2.7100,1.3200,0.0000,0.0000,-0.0000,1500.0000,1498.0000,1500.0000,1464.0000
184284.5470,3.0000,1433.0000,1470.0000,1508.0000,-2.0000,-2.0000,19.0000,48.0000,-292.0000,2018.0000,0.1273,-0.0747,-0.2325,0.9613,154.4500,-35.5800,-98.6800,-19.9500,-2.6700,1.3400,0.0000,0.0000,-0.0000,1500.0000,1498.0000,1500.0000,1464.0000
184301.1290,3.0000,1433.0000,1472.0000,1510.0000,2.0000,-1.0000,17.0000,41.0000,-100.0000,1903.0000,0.1250,-0.0754,-0.2328,0.9615,154.0600,-35.6300,-98.6600,-19.9700,-2.6200,1.3600,0.0000,0.0000,-0.0000,1500.0000,1498.0000,1500.0000,1465.0000
184317.9460,3.0000,1434.0000,1471.0000,1511.0000,3.0000,0.0000,15.0000,15.0000,-123.0000,1896.0000,0.1230,-0.0759,-0.2326,0.9618,154.0600,-35.6300,-98.6600,-19.9700,-2.6200,1.3600,0.0000,0.0000,-0.0000,1500.0000,1498.0000,1500.0000,1465.0000
184334.5130,3.0000,1434.0000,1470.0000,1510.0000,2.0000,0.0000,13.0000,49.0000,-102.0000,1901.0000,0.1213,-0.0766,-0.2326,0.9619,153.6500,-35.6800,-98.6300,-20.0000,-2.5600,1.3900,0.0000,0.0000,-0.0000,1500.0000,1498.0000,1500.0000,1465.0000
184350.9840,3.0000,1435.0000,1468.0000,1506.0000,-3.0000,-1.0000,10.0000,34.0000,-84.0000,1935.0000,0.1199,-0.0772,-0.2330,0.9620,153.2300,-35.7300,-98.6000,-20.0600,-2.5100,1.4100,0.0000,0.0000,-0.0000,1500.0000,1498.0000,1500.0000,1466.0000
184367.5800,3.0000,1434.0000,1466.0000,1506.0000,-5.0000,0.0000,10.0000,37.0000,-137.0000,1934.0000,0.1186,-0.0779,-0.2340,0.9618,152.8200,-35.7800,-98.5700,-20.1000,-2.4500,1.4400,0.0000,0.0000,-0.0000,1500.0000,1500.0000,1500.0000,1465.0000
184384.0940,3.0000,1433.0000,1467.0000,1507.0000,-4.0000,1.0000,9.0000,46.0000,-205.0000,1875.0000,0.1175,-0.0786,-0.2350,0.9616,152.4100,-35.8300,-98.5400,-20.1400,-2.4000,1.4700,0.0000,0.0000,-0.0000,1500.0000,1500.0000,1500.0000,1464.0000
184400.8660,3.0000,1434.0000,1466.0000,1508.0000,-3.0000,2.0000,9.0000,41.0000,-259.0000,1806.0000,0.1165,-0.0791,-0.2357,0.9616,152.0100,-35.8700,-98.5100,-20.1600,-2.3600,1.4900,0.0000,0.0000,-0.0000,1500.0000,1500.0000,1500.0000,1465.0000
184417.3560,3.0000,1435.0000,1468.0000,1510.0000,0.0000,2.0000,8.0000,-27.0000,-163.0000,1677.0000,0.1156,-0.0797,-0.2360,0.9615,152.0100,-35.8700,-98.5100,-20.1600,-2.3600,1.4900,0.0000,0.0000,-0.0000,1500.0000,1500.0000,1500.0000,1466.0000
184434.0240,3.0000,1435.0000,1473.0000,1513.0000,6.0000,0.0000,8.0000,-58.0000,-237.0000,1818.0000,0.1149,-0.0798,-0.2354,0.9618,151.6100,-35.9200,-98.4800,-20.1900,-2.3200,1.5300,0.0000,0.0000,-0.0000,1500.0000,1500.0000,1500.0000,1466.0000
184450.5740,3.0000,1434.0000,1473.0000,1511.0000,4.0000,-1.0000,9.0000,11.0000,-383.0000,2137.0000,0.1139,-0.0801,-0.2352,0.9619,151.1800,-35.9700,-98.4500,-20.2200,-2.2700,1.5600,0.0000,0.0000,-0.0000,1500.0000,1500.0000,1500.0000,1465.0000
184467.3430,3.0000,1434.0000,1470.0000,1508.0000,0.0000,-2.0000,11.0000,44.0000,-367.0000,2304.0000,0.1127,-0.0804,-0.2352,0.9620,150.7600,-36.0100,-98.4200,-20.2500,-2.2200,1.5600,0.0000,0.0000,-0.0000,1500.0000,1500.0000,1500.0000,1465.0000
184484.0320,3.0000,1433.0000,1468.0000,1508.0000,-2.0000,0.0000,14.0000,65.0000,-269.0000,2345.0000,0.1111,-0.0808,-0.2356,0.9621,150.3500,-36.0600,-98.3900,-20.2800,-2.1600,1.5400,0.0000,0.0000,-0.0000,1500.0000,1500.0000,1500.0000,1464.0000
184500.7860,3.0000,1433.0000,1468.0000,1508.0000,-1.0000,0.0000,15.0000,156.0000,-271.0000,2388.0000,0.1093,-0.0815,-0.2359,0.9622,149.9500,-36.1000,-98.3600,-20.3100,-2.1000,1.5200,0.0000,0.0000,-0.0000,1500.0000,1500.0000,1500.0000,1464.0000
184517.3770,3.0000,1433.0000,1465.0000,1505.0000,-7.0000,1.0000,14.0000,158.0000,-188.0000,2235.0000,0.1075,-0.0823,-0.2366,0.9621,149.9500,-36.1000,-98.3600,-20.3100,-2.1000,1.5200,0.0000,0.0000,-0.0000,1500.0000,1500.0000,1500.0000,1465.0000
184533.9590,3.0000,1434.0000,1460.0000,1500.0000,-16.0000,1.0000,12.0000,92.0000,-68.0000,2074.0000,0.1058,-0.0831,-0.2384,0.9618,149.5400,-36.1400,-98.3300,-20.3500,-2.0300,1.5100,0.0000,0.0000,-0.0000,1500.0000,1500.0000,1500.0000,1466.0000
184550.6030,3.0000,1435.0000,1459.0000,1499.0000,-18.0000,1.0000,11.0000,79.0000,-41.0000,1969.0000,0.1043,-0.0840,-0.2408,0.9613,149.1100,-36.1800,-98.3000,-20.4000,-1.9500,1.5300,0.0000,0.0000,-0.0000,1500.0000,1500.0000,1500.0000,1466.0000
184567.3190,3.0000,1435.0000,1461.0000,1501.0000,-15.0000,1.0000,7.0000,-28.0000,-99.0000,1826.0000,0.1032,-0.0845,-0.2428,0.9609,148.7000,-36.2200,-98.2700,-20.4300,-1.8800,1.5500,0.0000,0.0000,-0.0000,1500.0000,1500.0000,1500.0000,1466.0000
184583.9640,3.0000,1434.0000,1464.0000,1504.0000,-10.0000,0.0000,6.0000,-66.0000,-82.0000,1758.0000,0.1025,-0.0849,-0.2444,0.9605,148.2900,-36.2500,-98.2400,-20.4400,-1.8200,1.5900,0.0000,0.0000,-0.0000,1500.0000,1500.0000,1500.0000,1465.0000
184600.7110,3.0000,1433.0000,1465.0000,1507.0000,-7.0000,1.0000,5.0000,44.0000,-68.0000,1860.0000,0.1020,-0.0853,-0.2454,0.9603,148.2900,-36.2500,-98.2400,-20.4400,-1.8200,1.5900,0.0000,0.0000,-0.0000,1500.0000,1498.0000,1500.0000,1464.0000
184617.4680,2.0000,1000.0000,1521.0000,2000.0000,-1.0000,2.0000,4.0000,22.0000,-111.0000,1837.0000,0.1016,-0.0855,-0.2456,0.9602,147.8800,-36.2900,-98.2100,-20.4400,-1.7600,1.6300,0.0000,0.0000,-0.0000,1000.0000,1022.0000,1500.0000,1002.0000
184634.2240,2.0000,1000.0000,1522.0000,2000.0000,4.0000,2.0000,3.0000,-20.0000,-133.0000,1889.0000,0.1014,-0.0860,-0.2460,0.9601,147.4700,-36.3200,-98.1800,-20.4700,-1.6900,1.6600,0.0000,0.0000,-0.0000,1000.0000,1022.0000,1500.0000,1002.0000
184651.0170,2.0000,1000.0000,1522.0000,2000.0000,-3.0000,1.0000,2.0000,-110.0000,-35.0000,2038.0000,0.1014,-0.0866,-0.2459,0.9601,147.0400,-36.3500,-98.1500,-20.5100,-1.6300,1.6900,0.0000,0.0000,-0.0000,1000.0000,1022.0000,1500.0000,1002.0000
184668.0030,2.0000,1000.0000,1522.0000,2000.0000,-30.0000,-8.0000,4.0000,-333.0000,-27.0000,2023.0000,0.1009,-0.0867,-0.2483,0.9595,146.6200,-36.3900,-98.1100,-20.5300,-1.5500,1.7100,0.0000,0.0000,-0.0000,1000.0000,1022.0000,1500.0000,1002.0000
184684.7810,2.0000,1000.0000,1522.0000,2000.0000,-68.0000,-22.0000,8.0000,-593.0000,24.0000,1724.0000,0.0991,-0.0860,-0.2550,0.9580,146.2100,-36.4100,-98.0800,-20.5200,-1.4700,1.7300,0.0000,0.0000,-0.0000,1000.0000,1022.0000,1500.0000,1002.0000
184701.5820,2.0000,1000.0000,1522.0000,2000.0000,-102.0000,-40.0000,17.0000,-723.0000,-86.0000,1774.0000,0.0953,-0.0841,-0.2675,0.9551,146.2100,-36.4100,-98.0800,-20.5200,-1.4700,1.7300,0.0000,0.0000,-0.0000,1000.0000,1022.0000,1500.0000,1002.0000
184718.5600,2.0000,1000.0000,1522.0000,2000.0000,-124.0000,-59.0000,27.0000,-698.0000,-267.0000,2190.0000,0.0891,-0.0803,-0.2844,0.9512,145.8000,-36.4400,-98.0500,-20.4700,-1.3900,1.7700,0.0000,0.0000,-0.0000,1000.0000,1022.0000,1500.0000,1002.0000
184735.3350,2.0000,1000.0000,1522.0000,2000.0000,-155.0000,-65.0000,30.0000,-782.0000,-285.0000,3100.0000,0.0813,-0.0748,-0.3042,0.9462,145.3900,-36.4700,-98.0100,-20.4300,-1.3000,1.7800,0.0000,0.0000,-0.0000,1000.0000,1022.0000,1500.0000,1002.0000
184752.1670,2.0000,1000.0000,1522.0000,2000.0000,-168.0000,-74.0000,34.0000,-771.0000,-95.0000,3447.0000,0.0726,-0.0686,-0.3270,0.9397,144.9600,-36.4900,-97.9800,-20.4200,-1.1500,1.7100,0.0000,0.0000,-0.0000,1000.0000,1022.0000,1500.0000,1002.0000
184769.2460,2.0000,1000.0000,1522.0000,2000.0000,-177.0000,-82.0000,35.0000,-781.0000,-226.0000,4355.0000,0.0624,-0.0612,-0.3507,0.9324,144.5400,-36.5100,-97.9500,-20.4100,-0.9600,1.6100,0.0000,0.0000,-0.0000,1000.0000,1022.0000,1500.0000,1002.0000
184786.2580,2.0000,1000.0000,1522.0000,2000.0000,-183.0000,-86.0000,37.0000,-764.0000,-206.0000,4782.0000,0.0520,-0.0536,-0.3760,0.9236,144.1400,-36.5300,-97.9300,-20.3800,-0.7200,1.4700,0.0000,0.0000,-0.0000,1000.0000,1022.0000,1500.0000,1002.0000
184802.9450,2.0000,1167.0000,1378.0000,2000.0000,-177.0000,-86.0000,40.0000,-569.0000,-104.0000,4647.0000,0.0415,-0.0463,-0.4003,0.9143,144.1400,-36.5300,-97.9300,-20.3800,-0.7200,1.4700,0.0000,0.0000,-0.0000,1966.0000,1343.0000,1500.0000,1600.0000
184819.7370,2.0000,1577.0000,1000.0000,1191.0000,-176.0000,-78.0000,38.0000,-543.0000,-135.0000,4988.0000,0.0310,-0.0389,-0.4241,0.9043,143.7500,-36.5400,-97.9000,-20.3500,-0.4500,1.3200,0.0000,0.0000,-0.0000,1966.0000,1343.0000,1500.0000,1600.0000
184836.6480,2.0000,1577.0000,1000.0000,1191.0000,-159.0000,-83.0000,36.0000,-554.0000,-138.0000,4968.0000,0.0211,-0.0320,-0.4473,0.8936,143.3800,-36.5400,-97.8900,-20.3000,-0.1800,1.1900,0.0000,0.0000,-0.0000,1966.0000,1343.0000,1500.0000,1600.0000
184853.5740,2.0000,1577.0000,1000.0000,1191.0000,-117.0000,-88.0000,28.0000,-293.0000,-286.0000,5025.0000,0.0115,-0.0241,-0.4658,0.8845,143.0200,-36.5400,-97.8700,-20.2400,0.0700,1.0700,0.0000,0.0000,-0.0000,1966.0000,1343.0000,1500.0000,1600.0000
184870.4920,2.0000,1577.0000,1000.0000,1191.0000,-55.0000,-91.0000,16.0000,-63.0000,-259.0000,5284.0000,0.0029,-0.0145,-0.4772,0.8787,142.6800,-36.5300,-97.8600,-20.1800,0.3400,0.9600,0.0000,0.0000,-0.0000,1966.0000,1343.0000,1500.0000,1600.0000
184887.4610,2.0000,1577.0000,1000.0000,1191.0000,11.0000,-90.0000,2.0000,133.0000,-270.0000,5847.0000,-0.0042,-0.0037,-0.4802,0.8771,142.3400,-36.5200,-97.8500,-20.1300,0.6400,0.8500,0.0000,0.0000,-0.0000,1966.0000,1343.0000,1500.0000,1600.0000
184904.3420,2.0000,1577.0000,1000.0000,1191.0000,90.0000,-71.0000,-6.0000,324.0000,-529.0000,6728.0000,-0.0090,0.0067,-0.4737,0.8806,142.3400,-36.5200,-97.8500,-20.1300,0.6400,0.8500,0.0000,0.0000,-0.0000,1966.0000,1343.0000,1500.0000,1600.0000
184921.1030,2.0000,1273.0000,1014.0000,1624.0000,158.0000,-38.0000,-10.0000,370.0000,-563.0000,7084.0000,-0.0112,0.0137,-0.4571,0.8893,142.0100,-36.5000,-97.8400,-20.0900,1.0000,0.7000,0.0000,0.0000,-0.0000,1683.0000,1194.0000,1500.0000,1312.0000
184937.6300,2.0000,1273.0000,1013.0000,1625.0000,225.0000,-5.0000,-12.0000,386.0000,-453.0000,6603.0000,-0.0110,0.0166,-0.4320,0.9016,141.6800,-36.4800,-97.8300,-20.0400,1.3700,0.4800,0.0000,0.0000,-0.0000,1683.0000,1194.0000,1500.0000,1312.0000
184954.6620,2.0000,1273.0000,1013.0000,1625.0000,264.0000,17.0000,-12.0000,131.0000,-212.0000,5415.0000,-0.0091,0.0158,-0.3983,0.9171,141.3600,-36.4500,-97.8300,-19.9800,1.6800,0.2500,0.0000,0.0000,-0.0000,1683.0000,1194.0000,1500.0000,1312.0000
184971.7650,2.0000,1273.0000,1013.0000,1625.0000,257.0000,23.0000,-13.0000,-72.0000,-158.0000,3840.0000,-0.0062,0.0130,-0.3620,0.9321,141.0400,-36.4100,-97.8300,-19.9000,1.8500,0.0900,0.0000,0.0000,-0.0000,1683.0000,1194.0000,1500.0000,1312.0000
184988.5660,2.0000,1273.0000,1013.0000,1625.0000,218.0000,6.0000,-14.0000,-275.0000,-43.0000,2256.0000,-0.0036,0.0114,-0.3292,0.9442,140.7400,-36.3800,-97.8300,-19.8100,1.8700,0.0500,0.0000,0.0000,-0.0000,1683.0000,1194.0000,1500.0000,1312.0000
185005.4800,2.0000,1273.0000,1013.0000,1625.0000,185.0000,-16.0000,-16.0000,-407.0000,22.0000,1560.0000,-0.0018,0.0125,-0.3010,0.9535,140.7400,-36.3800,-97.8300,-19.8100,1.8700,0.0500,0.0000,0.0000,-0.0000,1683.0000,1194.0000,1500.0000,1312.0000
185022.5370,2.0000,1000.0000,1597.0000,2000.0000,164.0000,-36.0000,-16.0000,-448.0000,-108.0000,1570.0000,-0.0010,0.0168,-0.2764,0.9609,140.4400,-36.3400,-97.8300,-19.7000,1.8100,0.1100,0.0000,0.0000,-0.0000,1027.0000,1124.0000,1500.0000,1079.0000
185039.2190,2.0000,1000.0000,1597.0000,2000.0000,155.0000,-57.0000,-19.0000,-434.0000,-185.0000,1798.0000,-0.0011,0.0241,-0.2539,0.9669,140.1500,-36.3100,-97.8300,-19.5800,1.7300,0.1700,0.0000,0.0000,-0.0000,1027.0000,1124.0000,1500.0000,1079.0000
185056.2450,2.0000,1000.0000,1597.0000,2000.0000,127.0000,-77.0000,-18.0000,-446.0000,-293.0000,2245.0000,-0.0019,0.0344,-0.2332,0.9718,139.8600,-36.2800,-97.8300,-19.4600,1.6400,0.2100,0.0000,0.0000,-0.0000,1027.0000,1124.0000,1500.0000,1079.0000
185073.2330,2.0000,1000.0000,1597.0000,2000.0000,75.0000,-91.0000,-9.0000,-432.0000,-279.0000,3078.0000,-0.0031,0.0471,-0.2183,0.9747,139.5700,-36.2500,-97.8300,-19.3300,1.5800,0.1900,0.0000,0.0000,-0.0000,1027.0000,1124.0000,1500.0000,1079.0000
185090.0160,2.0000,1000.0000,1597.0000,2000.0000,16.0000,-99.0000,4.0000,-421.0000,-344.0000,4038.0000,-0.0057,0.0607,-0.2121,0.9753,139.3000,-36.2200,-97.8300,-19.1900,1.5400,0.0900,0.0000,0.0000,-0.0000,1027.0000,1124.0000,1500.0000,1079.0000
185107.0020,2.0000,1000.0000,1597.0000,2000.0000,-40.0000,-97.0000,18.0000,-354.0000,-471.0000,5046.0000,-0.0100,0.0747,-0.2140,0.9739,139.3000,-36.2200,-97.8300,-19.1900,1.5400,0.0900,0.0000,0.0000,-0.0000,1027.0000,1124.0000,1500.0000,1079.0000
185123.8360,2.0000,1686.0000,1439.0000,1587.0000,-90.0000,-84.0000,28.0000,-300.0000,-280.0000,5266.0000,-0.0150,0.0870,-0.2235,0.9707,139.0400,-36.2000,-97.8300,-19.0100,1.5300,-0.1200,0.0000,0.0000,-0.0000,1486.0000,1425.0000,1500.0000,1703.0000
185140.4780,2.0000,1686.0000,1439.0000,1587.0000,-129.0000,-74.0000,34.0000,-307.0000,-236.0000,5558.0000,-0.0199,0.0972,-0.2394,0.9659,138.8100,-36.1800,-97.8400,-18.8200,1.5500,-0.3900,0.0000,0.0000,-0.0000,1486.0000,1425.0000,1500.0000,1703.0000
185157.3800,2.0000,1686.0000,1439.0000,1587.0000,-142.0000,-67.0000,41.0000,-98.0000,-211.0000,5572.0000,-0.0250,0.1059,-0.2597,0.9595,138.6000,-36.1500,-97.8600,-18.6000,1.5800,-0.6600,0.0000,0.0000,-0.0000,1486.0000,1425.0000,1500.0000,1703.0000
185174.3550,2.0000,1686.0000,1439.0000,1587.0000,-125.0000,-62.0000,39.0000,303.0000,-305.0000,5630.0000,-0.0306,0.1137,-0.2791,0.9530,138.4000,-36.1300,-97.8800,-18.4100,1.6500,-0.9300,0.0000,0.0000,-0.0000,1486.0000,1425.0000,1500.0000,1703.0000
185191.2860,2.0000,1686.0000,1439.0000,1587.0000,-103.0000,-57.0000,35.0000,597.0000,-348.0000,5708.0000,-0.0358,0.1209,-0.2955,0.9470,138.2000,-36.1000,-97.9000,-18.2600,1.7400,-1.1900,0.0000,0.0000,-0.0000,1486.0000,1425.0000,1500.0000,1703.0000
185208.2250,2.0000,1714.0000,1382.0000,1572.0000,-83.0000,-54.0000,32.0000,748.0000,-323.0000,5708.0000,-0.0404,0.1273,-0.3088,0.9417,138.2000,-36.1000,-97.9000,-18.2600,1.7400,-1.1900,0.0000,0.0000,-0.0000,1564.0000,1380.0000,1500.0000,1758.0000
185225.3330,2.0000,1744.0000,1319.0000,1557.0000,-66.0000,-52.0000,27.0000,767.0000,-215.0000,5511.0000,-0.0449,0.1335,-0.3197,0.9370,138.0000,-36.0800,-97.9300,-18.1200,1.8500,-1.4500,0.0000,0.0000,-0.0000,1564.0000,1380.0000,1500.0000,1758.0000
185242.2940,2.0000,1744.0000,1319.0000,1557.0000,-53.0000,-52.0000,24.0000,881.0000,-279.0000,5287.0000,-0.0487,0.1397,-0.3283,0.9329,137.6400,-36.0300,-97.9700,-18.1000,2.1600,-1.6800,0.0000,0.0000,-0.0000,1564.0000,1380.0000,1500.0000,1758.0000
185259.3290,2.0000,1744.0000,1319.0000,1557.0000,-36.0000,-57.0000,21.0000,917.0000,-355.0000,5000.0000,-0.0526,0.1461,-0.3345,0.9295,137.2100,-35.9800,-98.0000,-18.1400,2.5200,-1.8900,0.0000,0.0000,-0.0000,1564.0000,1380.0000,1500.0000,1758.0000
185276.5880,2.0000,1744.0000,1319.0000,1557.0000,-24.0000,-61.0000,18.0000,942.0000,-280.0000,5023.0000,-0.0568,0.1532,-0.3387,0.9266,136.7900,-35.9200,-98.0400,-18.1600,2.8600,-2.0700,0.0000,0.0000,-0.0000,1564.0000,1380.0000,1500.0000,1758.0000
185293.6300,2.0000,1744.0000,1319.0000,1557.0000,-14.0000,-63.0000,14.0000,939.0000,-180.0000,4984.0000,-0.0609,0.1608,-0.3412,0.9241,136.3900,-35.8500,-98.0800,-18.1600,3.1800,-2.2400,0.0000,0.0000,-0.0000,1564.0000,1380.0000,1500.0000,1758.0000
185310.2610,2.0000,1744.0000,1319.0000,1557.0000,-8.0000,-68.0000,12.0000,956.0000,-160.0000,4908.0000,-0.0649,0.1688,-0.3426,0.9219,136.3900,-35.8500,-98.0800,-18.1600,3.1800,-2.2400,0.0000,0.0000,-0.0000,1564.0000,1380.0000,1500.0000,1758.0000
185326.9720,2.0000,1080.0000,1311.0000,2000.0000,-5.0000,-72.0000,10.0000,986.0000,-334.0000,4938.0000,-0.0689,0.1776,-0.3432,0.9198,135.9800,-35.7800,-98.1300,-18.1500,3.4900,-2.3900,0.0000,0.0000,-0.0000,1269.0000,1082.0000,1500.0000,1129.0000
185343.5520,2.0000,1080.0000,1312.0000,2000.0000,-3.0000,-75.0000,9.0000,917.0000,-444.0000,5022.0000,-0.0729,0.1867,-0.3434,0.9176,135.5600,-35.6900,-98.1700,-18.1200,3.8300,-2.5600,0.0000,0.0000,-0.0000,1269.0000,1082.0000,1500.0000,1129.0000
185360.3000,2.0000,1080.0000,1312.0000,2000.0000,-10.0000,-84.0000,8.0000,714.0000,-452.0000,4954.0000,-0.0769,0.1967,-0.3438,0.9150,135.1400,-35.6000,-98.2200,-18.0500,4.1600,-2.7400,0.0000,0.0000,-0.0000,1269.0000,1082.0000,1500.0000,1129.0000
185377.3440,2.0000,1080.0000,1312.0000,2000.0000,-27.0000,-94.0000,11.0000,456.0000,-441.0000,4956.0000,-0.0815,0.2085,-0.3458,0.9112,134.7300,-35.5100,-98.2700,-17.9500,4.4600,-2.9100,0.0000,0.0000,-0.0000,1269.0000,1082.0000,1500.0000,1129.0000
185393.9640,2.0000,1080.0000,1312.0000,2000.0000,-45.0000,-102.0000,15.0000,124.0000,-447.0000,5095.0000,-0.0862,0.2209,-0.3501,0.9062,134.3400,-35.4100,-98.3300,-17.8000,4.7400,-3.0800,0.0000,0.0000,-0.0000,1269.0000,1082.0000,1500.0000,1129.0000
185410.8640,2.0000,1270.0000,1154.0000,1928.0000,-53.0000,-111.0000,19.0000,-37.0000,-392.0000,5223.0000,-0.0915,0.2344,-0.3562,0.8999,134.3400,-35.4100,-98.3300,-17.8000,4.7400,-3.0800,0.0000,0.0000,-0.0000,1458.0000,1113.0000,1500.0000,1310.0000
185427.5770,2.0000,1271.0000,1154.0000,1928.0000,-58.0000,-113.0000,22.0000,-43.0000,-435.0000,5424.0000,-0.0971,0.2484,-0.3629,0.8928,133.9600,-35.3100,-98.3900,-17.6000,5.0000,-3.2300,0.0000,0.0000,-0.0000,1458.0000,1113.0000,1500.0000,1310.0000
185444.5380,2.0000,1271.0000,1154.0000,1928.0000,-60.0000,-112.0000,24.0000,36.0000,-446.0000,5630.0000,-0.1030,0.2624,-0.3702,0.8852,133.5700,-35.1900,-98.4500,-17.3600,5.3200,-3.3900,0.0000,0.0000,-0.0000,1458.0000,1113.0000,1500.0000,1310.0000
185461.6000,2.0000,1271.0000,1154.0000,1928.0000,-58.0000,-112.0000,24.0000,114.0000,-440.0000,5602.0000,-0.1088,0.2762,-0.3777,0.8771,133.1800,-35.0700,-98.5200,-17.1000,5.6500,-3.5500,0.0000,0.0000,-0.0000,1458.0000,1113.0000,1500.0000,1310.0000
185478.5190,2.0000,1271.0000,1154.0000,1928.0000,-51.0000,-110.0000,25.0000,118.0000,-373.0000,5810.0000,-0.1152,0.2897,-0.3841,0.8690,132.8000,-34.9500,-98.5900,-16.8300,5.9800,-3.7100,0.0000,0.0000,-0.0000,1458.0000,1113.0000,1500.0000,1310.0000
185495.4520,2.0000,1271.0000,1154.0000,1928.0000,-47.0000,-104.0000,25.0000,102.0000,-270.0000,6058.0000,-0.1215,0.3024,-0.3900,0.8612,132.4400,-34.8200,-98.6600,-16.5400,6.3000,-3.8500,0.0000,0.0000,-0.0000,1458.0000,1113.0000,1500.0000,1310.0000
185512.2020,2.0000,1294.0000,1051.0000,1777.0000,-40.0000,-100.0000,27.0000,152.0000,-302.0000,6102.0000,-0.1279,0.3140,-0.3948,0.8539,132.4400,-34.8200,-98.6600,-16.5400,6.3000,-3.8500,0.0000,0.0000,-0.0000,1589.0000,1137.0000,1500.0000,1333.0000
185529.2200,2.0000,1295.0000,1050.0000,1776.0000,-38.0000,-93.0000,28.0000,121.0000,-262.0000,5915.0000,-0.1339,0.3249,-0.3999,0.8465,132.0800,-34.6800,-98.7400,-16.2200,6.6400,-3.9900,0.0000,0.0000,-0.0000,1589.0000,1137.0000,1500.0000,1333.0000
185546.3190,2.0000,1295.0000,1050.0000,1776.0000,-28.0000,-84.0000,29.0000,104.0000,-299.0000,5954.0000,-0.1400,0.3345,-0.4044,0.8396,131.7200,-34.5400,-98.8200,-15.9100,6.9800,-4.1000,0.0000,0.0000,-0.0000,1589.0000,1137.0000,1500.0000,1333.0000
185563.2380,2.0000,1295.0000,1050.0000,1776.0000,-18.0000,-72.0000,29.0000,59.0000,-296.0000,5654.0000,-0.1458,0.3423,-0.4077,0.8339,131.3600,-34.3800,-98.9100,-15.6000,7.3100,-4.2000,0.0000,0.0000,-0.0000,1589.0000,1137.0000,1500.0000,1333.0000
185580.1270,2.0000,1295.0000,1050.0000,1776.0000,-5.0000,-56.0000,28.0000,51.0000,-344.0000,5597.0000,-0.1516,0.3484,-0.4097,0.8293,131.0200,-34.2200,-98.9900,-15.3000,7.6000,-4.2800,0.0000,0.0000,-0.0000,1589.0000,1137.0000,1500.0000,1333.0000
185596.8510,2.0000,1295.0000,1050.0000,1776.0000,6.0000,-39.0000,27.0000,27.0000,-355.0000,5341.0000,-0.1569,0.3519,-0.4105,0.8265,130.6800,-34.0600,-99.0800,-15.0000,7.8700,-4.3600,0.0000,0.0000,-0.0000,1589.0000,1137.0000,1500.0000,1333.0000
185613.9380,2.0000,1336.0000,1120.0000,1880.0000,15.0000,-23.0000,27.0000,-43.0000,-244.0000,4951.0000,-0.1619,0.3532,-0.4101,0.8251,130.6800,-34.0600,-99.0800,-15.0000,7.8700,-4.3600,0.0000,0.0000,-0.0000,1499.0000,1120.0000,1500.0000,1372.0000
185630.8190,2.0000,1336.0000,1120.0000,1880.0000,11.0000,-12.0000,27.0000,-44.0000,-175.0000,4412.0000,-0.1661,0.3526,-0.4096,0.8248,130.3700,-33.9000,-99.1800,-14.7200,8.0900,-4.4000,0.0000,0.0000,-0.0000,1499.0000,1120.0000,1500.0000,1372.0000
185647.7690,2.0000,1336.0000,1120.0000,1880.0000,9.0000,-2.0000,29.0000,-10.0000,-244.0000,3977.0000,-0.1700,0.3507,-0.4096,0.8248,130.0300,-33.7200,-99.2700,-14.4400,8.3300,-4.4200,0.0000,0.0000,-0.0000,1499.0000,1120.0000,1500.0000,1372.0000
185664.7330,2.0000,1336.0000,1120.0000,1880.0000,5.0000,0.0000,32.0000,25.0000,-328.0000,3399.0000,-0.1736,0.3479,-0.4107,0.8247,129.7000,-33.5400,-99.3700,-14.2000,8.5400,-4.4200,0.0000,0.0000,-0.0000,1499.0000,1120.0000,1500.0000,1372.0000
185681.5690,2.0000,1336.0000,1120.0000,1880.0000,1.0000,-4.0000,32.0000,34.0000,-264.0000,2732.0000,-0.1771,0.3455,-0.4124,0.8241,129.3900,-33.3600,-99.4600,-14.0100,8.6900,-4.3900,0.0000,0.0000,-0.0000,1499.0000,1120.0000,1500.0000,1372.0000
185698.5660,2.0000,1336.0000,1120.0000,1880.0000,-7.0000,-9.0000,31.0000,77.0000,-283.0000,2290.0000,-0.1806,0.3440,-0.4147,0.8228,129.0900,-33.1800,-99.5500,-13.8800,8.8000,-4.3300,0.0000,0.0000,-0.0000,1499.0000,1120.0000,1500.0000,1372.0000
185715.6620,2.0000,1995.0000,1123.0000,1959.0000,-9.0000,-17.0000,32.0000,101.0000,-305.0000,1996.0000,-0.1841,0.3435,-0.4176,0.8208,129.0900,-33.1800,-99.5500,-13.8800,8.8000,-4.3300,0.0000,0.0000,-0.0000,1457.0000,1081.0000,1500.0000,1998.0000
185732.3910,2.0000,1997.0000,1123.0000,1961.0000,-10.0000,-32.0000,32.0000,107.0000,-264.0000,1797.0000,-0.1883,0.3446,-0.4203,0.8180,128.8000,-33.0000,-99.6500,-13.7800,8.8800,-4.2600,0.0000,0.0000,-0.0000,1457.0000,1081.0000,1500.0000,1998.0000
185748.9710,2.0000,1997.0000,1123.0000,1961.0000,-21.0000,-50.0000,32.0000,260.0000,-295.0000,1732.0000,-0.1933,0.3479,-0.4233,0.8139,128.4900,-32.8200,-99.7400,-13.6400,8.9800,-4.1700,0.0000,0.0000,-0.0000,1457.0000,1081.0000,1500.0000,1998.0000
185765.7590,2.0000,1997.0000,1123.0000,1961.0000,-31.0000,-71.0000,34.0000,805.0000,-344.0000,1980.0000,-0.1989,0.3539,-0.4272,0.8079,128.1900,-32.6200,-99.8300,-13.5000,9.0800,-4.0800,0.0000,0.0000,-0.0000,1457.0000,1081.0000,1500.0000,1998.0000
185782.6080,2.0000,1997.0000,1123.0000,1961.0000,-36.0000,-92.0000,33.0000,1281.0000,-306.0000,2353.0000,-0.2052,0.3626,-0.4310,0.8004,127.8900,-32.4300,-99.9200,-13.3800,9.2300,-4.0100,0.0000,0.0000,-0.0000,1457.0000,1081.0000,1500.0000,1998.0000
185799.4860,2.0000,1997.0000,1123.0000,1961.0000,-33.0000,-112.0000,32.0000,1685.0000,-360.0000,2906.0000,-0.2124,0.3730,-0.4343,0.7919,127.6100,-32.2500,-100.0000,-13.2400,9.4100,-3.9700,0.0000,0.0000,-0.0000,1457.0000,1081.0000,1500.0000,1998.0000
185816.4160,2.0000,1997.0000,1018.0000,1856.0000,-34.0000,-136.0000,33.0000,1855.0000,-615.0000,3614.0000,-0.2214,0.3860,-0.4367,0.7819,127.6100,-32.2500,-100.0000,-13.2400,9.4100,-3.9700,0.0000,0.0000,-0.0000,1566.0000,1081.0000,1500.0000,1998.0000
185833.4430,2.0000,1997.0000,1017.0000,1855.0000,-28.0000,-152.0000,32.0000,1670.0000,-542.0000,3900.0000,-0.2317,0.4012,-0.4376,0.7706,127.3300,-32.0600,-100.0800,-13.0600,9.6300,-3.9600,0.0000,0.0000,-0.0000,1566.0000,1081.0000,1500.0000,1998.0000
185850.1780,2.0000,1997.0000,1017.0000,1855.0000,-22.0000,-168.0000,35.0000,1908.0000,-748.0000,4798.0000,-0.2432,0.4175,-0.4375,0.7584,127.0300,-31.8500,-100.1700,-12.7700,9.8800,-3.9500,0.0000,0.0000,-0.0000,1566.0000,1081.0000,1500.0000,1998.0000
185866.9590,2.0000,1997.0000,1017.0000,1855.0000,-18.0000,-180.0000,32.0000,1948.0000,-932.0000,5550.0000,-0.2556,0.4348,-0.4360,0.7453,126.7400,-31.6300,-100.2400,-12.3900,10.1400,-3.9700,0.0000,0.0000,-0.0000,1566.0000,1081.0000,1500.0000,1998.0000
185883.8250,2.0000,1997.0000,1017.0000,1855.0000,-11.0000,-186.0000,31.0000,2363.0000,-689.0000,6021.0000,-0.2688,0.4525,-0.4332,0.7317,126.4700,-31.4200,-100.3200,-11.9400,10.4000,-4.0200,0.0000,0.0000,-0.0000,1566.0000,1081.0000,1500.0000,1998.0000
185900.4820,2.0000,1997.0000,1017.0000,1855.0000,-7.0000,-180.0000,26.0000,2054.0000,-582.0000,6461.0000,-0.2818,0.4699,-0.4293,0.7180,126.2100,-31.2100,-100.3900,-11.4500,10.6500,-4.0600,0.0000,0.0000,-0.0000,1566.0000,1081.0000,1500.0000,1998.0000
185917.2650,2.0000,1997.0000,1022.0000,1860.0000,-3.0000,-171.0000,25.0000,1904.0000,-980.0000,7120.0000,-0.2939,0.4862,-0.4250,0.7047,126.2100,-31.2100,-100.3900,-11.4500,10.6500,-4.0600,0.0000,0.0000,-0.0000,1561.0000,1081.0000,1500.0000,1998.0000
185934.1310,2.0000,1997.0000,1022.0000,1860.0000,2.0000,-158.0000,25.0000,2345.0000,-960.0000,7125.0000,-0.3055,0.5010,-0.4204,0.6921,125.9800,-31.0100,-100.4600,-10.9000,10.8200,-4.1100,0.0000,0.0000,-0.0000,1561.0000,1081.0000,1500.0000,1998.0000
185951.2220,2.0000,1997.0000,1022.0000,1860.0000,10.0000,-141.0000,27.0000,2572.0000,-861.0000,6919.0000,-0.3168,0.5136,-0.4156,0.6805,125.7200,-30.7700,-100.5400,-10.3300,11.0400,-4.1800,0.0000,0.0000,-0.0000,1561.0000,1081.0000,1500.0000,1998.0000
185968.0880,2.0000,1997.0000,1022.0000,1860.0000,12.0000,-121.0000,29.0000,2393.0000,-742.0000,7178.0000,-0.3271,0.5240,-0.4115,0.6702,125.4800,-30.5300,-100.6100,-9.7900,11.2300,-4.2400,0.0000,0.0000,-0.0000,1561.0000,1081.0000,1500.0000,1998.0000
185984.8460,2.0000,1997.0000,1022.0000,1860.0000,20.0000,-107.0000,29.0000,2074.0000,-714.0000,6714.0000,-0.3373,0.5321,-0.4073,0.6613,125.2600,-30.3100,-100.6900,-9.2700,11.3700,-4.2900,0.0000,0.0000,-0.0000,1561.0000,1081.0000,1500.0000,1998.0000
186001.6040,2.0000,1997.0000,1022.0000,1860.0000,24.0000,-91.0000,32.0000,1919.0000,-505.0000,5903.0000,-0.3470,0.5380,-0.4031,0.6540,125.0600,-30.0900,-100.7700,-8.8400,11.4200,-4.3000,0.0000,0.0000,-0.0000,1561.0000,1081.0000,1500.0000,1998.0000
186018.4410,2.0000,1997.0000,1143.0000,1983.0000,16.0000,-80.0000,35.0000,1917.0000,-591.0000,5705.0000,-0.3562,0.5428,-0.4000,0.6469,125.0600,-30.0900,-100.7700,-8.8400,11.4200,-4.3000,0.0000,0.0000,-0.0000,1435.0000,1080.0000,1500.0000,1998.0000
186035.3500,2.0000,1997.0000,1144.0000,1984.0000,21.0000,-63.0000,38.0000,1847.0000,-361.0000,5252.0000,-0.3643,0.5458,-0.3982,0.6410,124.8800,-29.8800,-100.8500,-8.4900,11.4300,-4.3000,0.0000,0.0000,-0.0000,1435.0000,1080.0000,1500.0000,1998.0000
186052.3620,2.0000,1997.0000,1144.0000,1984.0000,23.0000,-55.0000,43.0000,1909.0000,-605.0000,5080.0000,-0.3725,0.5473,-0.3969,0.6357,124.6800,-29.6400,-100.9300,-8.0200,11.5800,-4.2700,0.0000,0.0000,-0.0000,1435.0000,1080.0000,1500.0000,1998.0000
186069.1700,2.0000,1997.0000,1144.0000,1984.0000,20.0000,-44.0000,46.0000,1737.0000,-553.0000,4846.0000,-0.3807,0.5476,-0.3964,0.6309,124.4900,-29.3900,-101.0100,-7.6000,11.6900,-4.2500,0.0000,0.0000,-0.0000,1435.0000,1080.0000,1500.0000,1998.0000
186085.9220,2.0000,1997.0000,1144.0000,1984.0000,8.0000,-36.0000,46.0000,1814.0000,-646.0000,4654.0000,-0.3880,0.5478,-0.3968,0.6261,124.3200,-29.1600,-101.0900,-7.2300,11.7400,-4.2300,0.0000,0.0000,-0.0000,1435.0000,1080.0000,1500.0000,1998.0000
186102.9540,2.0000,1997.0000,1144.0000,1984.0000,-7.0000,-23.0000,50.0000,1878.0000,-457.0000,4039.0000,-0.3935,0.5469,-0.3996,0.6216,124.1700,-28.9400,-101.1700,-6.9500,11.7800,-4.1900,0.0000,0.0000,-0.0000,1435.0000,1080.0000,1500.0000,1998.0000
186119.5190,2.0000,1997.0000,1118.0000,1956.0000,-17.0000,-27.0000,51.0000,1708.0000,-474.0000,3432.0000,-0.3978,0.5466,-0.4039,0.6163,124.1700,-28.9400,-101.1700,-6.9500,11.7800,-4.1900,0.0000,0.0000,-0.0000,1462.0000,1081.0000,1500.0000,1998.0000
186136.4820,2.0000,1997.0000,1118.0000,1956.0000,-28.0000,-29.0000,50.0000,1734.0000,-269.0000,2997.0000,-0.4018,0.5475,-0.4085,0.6099,124.0300,-28.7400,-101.2500,-6.7500,11.7900,-4.1300,0.0000,0.0000,-0.0000,1462.0000,1081.0000,1500.0000,1998.0000
186153.2270,2.0000,1997.0000,1118.0000,1956.0000,-37.0000,-39.0000,48.0000,1803.0000,-218.0000,2763.0000,-0.4048,0.5490,-0.4139,0.6029,123.8700,-28.4800,-101.3400,-6.3000,11.9000,-4.0500,0.0000,0.0000,-0.0000,1462.0000,1081.0000,1500.0000,1998.0000
186170.2820,2.0000,1997.0000,1118.0000,1956.0000,-44.0000,-48.0000,45.0000,1553.0000,-261.0000,2522.0000,-0.4077,0.5522,-0.4189,0.5944,123.7300,-28.2400,-101.4300,-5.9100,12.0000,-3.9700,0.0000,0.0000,-0.0000,1462.0000,1081.0000,1500.0000,1998.0000
186187.3070,2.0000,1997.0000,1118.0000,1956.0000,-46.0000,-70.0000,41.0000,1295.0000,-399.0000,2408.0000,-0.4110,0.5574,-0.4229,0.5844,123.6000,-28.0000,-101.5100,-5.5900,12.0500,-3.8900,0.0000,0.0000,-0.0000,1462.0000,1081.0000,1500.0000,1998.0000
186204.0020,2.0000,1997.0000,1118.0000,1956.0000,-43.0000,-90.0000,36.0000,1008.0000,-197.0000,2141.0000,-0.4151,0.5641,-0.4254,0.5732,123.6000,-28.0000,-101.5100,-5.5900,12.0500,-3.8900,0.0000,0.0000,-0.0000,1462.0000,1081.0000,1500.0000,1998.0000
186220.9040,2.0000,1997.0000,1023.0000,1861.0000,-45.0000,-102.0000,33.0000,1459.0000,-162.0000,2490.0000,-0.4201,0.5726,-0.4262,0.5604,123.4900,-27.7900,-101.5900,-5.3200,12.0400,-3.7800,0.0000,0.0000,-0.0000,1560.0000,1081.0000,1500.0000,1998.0000
186237.8280,2.0000,1997.0000,1023.0000,1861.0000,-46.0000,-126.0000,30.0000,1520.0000,-490.0000,3088.0000,-0.4258,0.5827,-0.4256,0.5459,123.3900,-27.5800,-101.6700,-5.0700,12.0300,-3.6600,0.0000,0.0000,-0.0000,1560.0000,1081.0000,1500.0000,1998.0000
186254.8930,2.0000,1997.0000,1023.0000,1861.0000,-42.0000,-139.0000,26.0000,1942.0000,-770.0000,3667.0000,-0.4320,0.5939,-0.4238,0.5301,123.2900,-27.3200,-101.7500,-4.5600,12.0500,-3.5500,0.0000,0.0000,-0.0000,1560.0000,1081.0000,1500.0000,1998.0000
186271.7780,2.0000,1997.0000,1023.0000,1861.0000,-28.0000,-161.0000,19.0000,2177.0000,-797.0000,4101.0000,-0.4398,0.6062,-0.4189,0.5133,123.2000,-27.0800,-101.8300,-4.0400,12.0700,-3.4500,0.0000,0.0000,-0.0000,1560.0000,1081.0000,1500.0000,1998.0000
186288.5930,2.0000,1997.0000,1023.0000,1861.0000,-23.0000,-169.0000,15.0000,1889.0000,-603.0000,4503.0000,-0.4488,0.6191,-0.4116,0.4958,123.1300,-26.8500,-101.9100,-3.5100,12.0700,-3.3300,0.0000,0.0000,-0.0000,1560.0000,1081.0000,1500.0000,1998.0000
186305.1720,2.0000,1997.0000,1023.0000,1861.0000,-18.0000,-174.0000,12.0000,2177.0000,-377.0000,4917.0000,-0.4577,0.6316,-0.4034,0.4784,123.1300,-26.8500,-101.9100,-3.5100,12.0700,-3.3300,0.0000,0.0000,-0.0000,1560.0000,1081.0000,1500.0000,1998.0000
186322.1020,2.0000,1997.0000,1025.0000,1863.0000,-15.0000,-181.0000,10.0000,1974.0000,-171.0000,5172.0000,-0.4671,0.6441,-0.3939,0.4602,123.0700,-26.6300,-101.9800,-2.9800,12.0400,-3.1700,0.0000,0.0000,-0.0000,1558.0000,1081.0000,1500.0000,1998.0000
186339.0350,2.0000,1997.0000,1025.0000,1863.0000,-14.0000,-181.0000,6.0000,2076.0000,-241.0000,5555.0000,-0.4764,0.6565,-0.3833,0.4416,123.0200,-26.4200,-102.0500,-2.4700,11.9600,-2.9700,0.0000,0.0000,-0.0000,1558.0000,1081.0000,1500.0000,1998.0000
186355.7650,2.0000,1997.0000,1025.0000,1863.0000,-11.0000,-185.0000,3.0000,2226.0000,-503.0000,6081.0000,-0.4854,0.6685,-0.3721,0.4231,122.9800,-26.1700,-102.1200,-1.8500,11.9400,-2.7600,0.0000,0.0000,-0.0000,1558.0000,1081.0000,1500.0000,1998.0000
186372.8730,2.0000,1997.0000,1025.0000,1863.0000,-9.0000,-169.0000,4.0000,2212.0000,-765.0000,6677.0000,-0.4941,0.6797,-0.3604,0.4050,122.9600,-25.9300,-102.1800,-1.2300,11.8600,-2.5600,0.0000,0.0000,-0.0000,1558.0000,1081.0000,1500.0000,1998.0000
186389.7260,2.0000,1997.0000,1025.0000,1863.0000,-7.0000,-159.0000,6.0000,1882.0000,-709.0000,6850.0000,-0.5021,0.6895,-0.3494,0.3877,122.9400,-25.7100,-102.2400,-0.6300,11.7100,-2.3800,0.0000,0.0000,-0.0000,1558.0000,1081.0000,1500.0000,1998.0000
186406.6330,2.0000,1997.0000,1112.0000,1950.0000,0.0000,-132.0000,9.0000,2108.0000,-601.0000,6455.0000,-0.5094,0.6972,-0.3400,0.3726,122.9400,-25.5100,-102.3000,-0.1100,11.5200,-2.1900,0.0000,0.0000,-0.0000,1467.0000,1081.0000,1500.0000,1998.0000
186423.5920,2.0000,1997.0000,1113.0000,1951.0000,4.0000,-121.0000,12.0000,2338.0000,-694.0000,6243.0000,-0.5163,0.7031,-0.3318,0.3592,122.9400,-25.5100,-102.3000,-0.1100,11.5200,-2.1900,0.0000,0.0000,-0.0000,1467.0000,1081.0000,1500.0000,1998.0000
186440.5010,2.0000,1997.0000,1113.0000,1951.0000,7.0000,-109.0000,18.0000,2014.0000,-775.0000,5940.0000,-0.5232,0.7080,-0.3241,0.3463,122.9500,-25.2600,-102.3600,0.5500,11.3800,-2.0000,0.0000,0.0000,-0.0000,1467.0000,1081.0000,1500.0000,1998.0000
186457.3740,2.0000,1997.0000,1113.0000,1951.0000,10.0000,-86.0000,25.0000,1682.0000,-895.0000,5633.0000,-0.5297,0.7111,-0.3187,0.3350,122.9800,-25.0200,-102.4200,1.1100,11.2100,-1.8200,0.0000,0.0000,-0.0000,1467.0000,1081.0000,1500.0000,1998.0000
186474.6100,2.0000,1997.0000,1113.0000,1951.0000,12.0000,-75.0000,29.0000,1756.0000,-801.0000,5241.0000,-0.5358,0.7127,-0.3150,0.3252,123.0100,-24.8100,-102.4700,1.5500,11.0200,-1.6500,0.0000,0.0000,-0.0000,1467.0000,1081.0000,1500.0000,1998.0000
186491.7580,2.0000,1997.0000,1113.0000,1951.0000,8.0000,-65.0000,36.0000,1642.0000,-527.0000,4470.0000,-0.5416,0.7136,-0.3125,0.3158,123.0400,-24.6000,-102.5300,1.9000,10.8600,-1.4700,0.0000,0.0000,-0.0000,1467.0000,1081.0000,1500.0000,1998.0000
186508.5820,2.0000,1997.0000,1113.0000,1951.0000,5.0000,-58.0000,41.0000,1759.0000,-463.0000,4107.0000,-0.5467,0.7142,-0.3114,0.3067,123.0900,-24.4100,-102.5700,2.1500,10.7400,-1.2800,0.0000,0.0000,-0.0000,1467.0000,1081.0000,1500.0000,1998.0000
186525.5460,2.0000,1997.0000,1105.0000,1943.0000,1.0000,-58.0000,44.0000,1974.0000,-508.0000,3882.0000,-0.5515,0.7146,-0.3112,0.2971,123.0900,-24.4100,-102.5700,2.1500,10.7400,-1.2800,0.0000,0.0000,-0.0000,1475.0000,1081.0000,1500.0000,1998.0000
186542.6260,2.0000,1997.0000,1105.0000,1943.0000,-3.0000,-63.0000,47.0000,1929.0000,-551.0000,3608.0000,-0.5564,0.7153,-0.3109,0.2866,123.1500,-24.1800,-102.6300,2.7400,10.5400,-1.1000,0.0000,0.0000,-0.0000,1475.0000,1081.0000,1500.0000,1998.0000
186559.3420,2.0000,1997.0000,1105.0000,1943.0000,-7.0000,-75.0000,49.0000,1905.0000,-745.0000,3651.0000,-0.5608,0.7164,-0.3105,0.2753,123.2200,-23.9600,-102.6800,3.2600,10.3500,-0.9400,0.0000,0.0000,-0.0000,1475.0000,1081.0000,1500.0000,1998.0000
186576.5190,2.0000,1997.0000,1105.0000,1943.0000,-12.0000,-87.0000,48.0000,1860.0000,-828.0000,3540.0000,-0.5655,0.7182,-0.3093,0.2621,123.3000,-23.7600,-102.7300,3.7000,10.1600,-0.8100,0.0000,0.0000,-0.0000,1475.0000,1081.0000,1500.0000,1998.0000
186593.1620,2.0000,1997.0000,1105.0000,1943.0000,-16.0000,-98.0000,49.0000,1662.0000,-545.0000,3199.0000,-0.5701,0.7208,-0.3069,0.2475,123.3800,-23.5800,-102.7700,4.0500,9.9800,-0.6500,0.0000,0.0000,-0.0000,1475.0000,1081.0000,1500.0000,1998.0000
186610.2270,2.0000,1713.0000,1191.0000,1993.0000,-20.0000,-111.0000,50.0000,1727.0000,-302.0000,3099.0000,-0.5748,0.7238,-0.3038,0.2312,123.4600,-23.4100,-102.8100,4.3500,9.8100,-0.4700,0.0000,0.0000,-0.0000,1335.0000,1118.0000,1500.0000,1446.0000
186627.0880,2.0000,1414.0000,1282.0000,2000.0000,-21.0000,-130.0000,50.0000,1762.0000,-217.0000,3318.0000,-0.5795,0.7275,-0.2993,0.2128,123.4600,-23.4100,-102.8100,4.3500,9.8100,-0.4700,0.0000,0.0000,-0.0000,1335.0000,1118.0000,1500.0000,1446.0000
186644.0750,2.0000,1414.0000,1282.0000,2000.0000,-21.0000,-145.0000,48.0000,2003.0000,-115.0000,3829.0000,-0.5850,0.7315,-0.2927,0.1923,123.5800,-23.2100,-102.8500,4.8900,9.5300,-0.2400,0.0000,0.0000,-0.0000,1335.0000,1118.0000,1500.0000,1446.0000
186660.8160,2.0000,1414.0000,1282.0000,2000.0000,-27.0000,-159.0000,49.0000,1597.0000,-129.0000,4621.0000,-0.5904,0.7356,-0.2850,0.1705,123.7000,-23.0200,-102.8800,5.4000,9.2400,0.0200,0.0000,0.0000,-0.0000,1335.0000,1118.0000,1500.0000,1446.0000
186677.7090,2.0000,1414.0000,1282.0000,2000.0000,-40.0000,-164.0000,50.0000,1307.0000,-388.0000,5146.0000,-0.5947,0.7404,-0.2768,0.1469,123.8200,-22.8500,-102.9100,5.8400,8.9000,0.3000,0.0000,0.0000,-0.0000,1335.0000,1118.0000,1500.0000,1446.0000
186694.3800,2.0000,1414.0000,1282.0000,2000.0000,-47.0000,-164.0000,53.0000,1179.0000,-565.0000,5530.0000,-0.5974,0.7455,-0.2688,0.1228,123.9400,-22.6900,-102.9200,6.2300,8.5000,0.5500,0.0000,0.0000,-0.0000,1335.0000,1118.0000,1500.0000,1446.0000
186711.0470,2.0000,1312.0000,1265.0000,2000.0000,-55.0000,-163.0000,53.0000,1071.0000,-605.0000,5775.0000,-0.5988,0.7507,-0.2611,0.0983,124.0700,-22.5400,-102.9200,6.5900,8.0700,0.8100,0.0000,0.0000,-0.0000,1354.0000,1120.0000,1500.0000,1345.0000
186727.9480,2.0000,1308.0000,1265.0000,2000.0000,-58.0000,-159.0000,55.0000,926.0000,-330.0000,5839.0000,-0.5992,0.7559,-0.2534,0.0732,124.0700,-22.5400,-102.9200,6.5900,8.0700,0.8100,0.0000,0.0000,-0.0000,1354.0000,1120.0000,1500.0000,1345.0000
186744.9220,2.0000,1308.0000,1265.0000,2000.0000,-57.0000,-152.0000,54.0000,831.0000,-300.0000,6037.0000,-0.5989,0.7605,-0.2462,0.0486,124.2200,-22.3800,-102.9300,7.0000,7.5900,1.0900,0.0000,0.0000,-0.0000,1354.0000,1120.0000,1500.0000,1345.0000
186761.7970,2.0000,1308.0000,1265.0000,2000.0000,-55.0000,-143.0000,53.0000,701.0000,-345.0000,6110.0000,-0.5981,0.7644,-0.2394,0.0253,124.3700,-22.2300,-102.9200,7.3400,7.1100,1.3900,0.0000,0.0000,-0.0000,1354.0000,1120.0000,1500.0000,1345.0000
186778.8350,2.0000,1308.0000,1265.0000,2000.0000,-59.0000,-134.0000,53.0000,556.0000,-406.0000,6039.0000,-0.5967,0.7678,-0.2333,0.0028,124.5300,-22.1000,-102.9100,7.6300,6.6200,1.6900,0.0000,0.0000,-0.0000,1354.0000,1120.0000,1500.0000,1345.0000
186795.8060,2.0000,1308.0000,1265.0000,2000.0000,-55.0000,-120.0000,55.0000,415.0000,-375.0000,5944.0000,-0.5944,0.7709,-0.2281,-0.0185,124.6900,-21.9800,-102.8900,7.8400,6.1400,1.9900,0.0000,0.0000,-0.0000,1354.0000,1120.0000,1500.0000,1345.0000
186812.6460,2.0000,1308.0000,1265.0000,2000.0000,-48.0000,-98.0000,56.0000,255.0000,-276.0000,5833.0000,-0.5919,0.7732,-0.2247,-0.0375,124.8400,-21.8700,-102.8700,8.0100,5.6800,2.2800,0.0000,0.0000,-0.0000,1354.0000,1120.0000,1500.0000,1345.0000
186829.5400,2.0000,1696.0000,1830.0000,1000.0000,-49.0000,-76.0000,55.0000,173.0000,-141.0000,5346.0000,-0.5890,0.7749,-0.2230,-0.0540,124.8400,-21.8700,-102.8700,8.0100,5.6800,2.2800,0.0000,0.0000,-0.0000,1651.0000,1980.0000,1500.0000,1713.0000
186846.5840,2.0000,1696.0000,1830.0000,1000.0000,-58.0000,-60.0000,55.0000,214.0000,-82.0000,5034.0000,-0.5845,0.7772,-0.2228,-0.0684,125.0200,-21.7600,-102.8400,8.2100,5.2000,2.5800,0.0000,0.0000,-0.0000,1651.0000,1980.0000,1500.0000,1713.0000
186863.6030,2.0000,1696.0000,1830.0000,1000.0000,-59.0000,-38.0000,58.0000,422.0000,-254.0000,4810.0000,-0.5788,0.7799,-0.2242,-0.0810,125.2000,-21.6600,-102.8100,8.3500,4.7900,2.8800,0.0000,0.0000,-0.0000,1651.0000,1980.0000,1500.0000,1713.0000
186880.3960,2.0000,1696.0000,1830.0000,1000.0000,-65.0000,-8.0000,60.0000,614.0000,-198.0000,4669.0000,-0.5718,0.7828,-0.2281,-0.0907,125.3700,-21.5700,-102.7800,8.5000,4.4100,3.1700,0.0000,0.0000,-0.0000,1651.0000,1980.0000,1500.0000,1713.0000
186896.9940,2.0000,1696.0000,1830.0000,1000.0000,-83.0000,18.0000,56.0000,824.0000,-105.0000,4573.0000,-0.5623,0.7872,-0.2339,-0.0975,125.5400,-21.4900,-102.7400,8.6400,4.0800,3.4900,0.0000,0.0000,-0.0000,1651.0000,1980.0000,1500.0000,1713.0000
186913.7990,2.0000,1696.0000,1830.0000,1000.0000,-88.0000,59.0000,55.0000,929.0000,-369.0000,4397.0000,-0.5499,0.7930,-0.2419,-0.1007,125.7200,-21.4200,-102.6900,8.8000,3.7600,3.8300,0.0000,0.0000,-0.0000,1651.0000,1980.0000,1500.0000,1713.0000
186930.5650,2.0000,1974.0000,1441.0000,1000.0000,-72.0000,100.0000,53.0000,978.0000,-401.0000,3776.0000,-0.5367,0.7989,-0.2527,-0.0993,125.7200,-21.4200,-102.6900,8.8000,3.7600,3.8300,0.0000,0.0000,-0.0000,1997.0000,1938.0000,1500.0000,1976.0000
186947.4090,2.0000,1974.0000,1441.0000,1000.0000,-38.0000,147.0000,50.0000,977.0000,-64.0000,2864.0000,-0.5247,0.8033,-0.2665,-0.0916,125.9200,-21.3400,-102.6400,9.0000,3.4100,4.1600,0.0000,0.0000,-0.0000,1997.0000,1938.0000,1500.0000,1976.0000
186964.6540,2.0000,1974.0000,1441.0000,1000.0000,16.0000,192.0000,51.0000,1353.0000,287.0000,1031.0000,-0.5154,0.8046,-0.2850,-0.0758,126.1100,-21.2800,-102.5800,9.1600,3.1900,4.4800,0.0000,0.0000,-0.0000,1997.0000,1938.0000,1500.0000,1976.0000
186981.4530,2.0000,1974.0000,1441.0000,1000.0000,76.0000,217.0000,46.0000,1609.0000,193.0000,-1451.0000,-0.5113,0.8013,-0.3060,-0.0534,126.3000,-21.2100,-102.5200,9.3100,3.1800,4.7500,0.0000,0.0000,-0.0000,1997.0000,1938.0000,1500.0000,1976.0000
186998.0340,2.0000,1974.0000,1441.0000,1000.0000,139.0000,226.0000,39.0000,1760.0000,122.0000,-3838.0000,-0.5132,0.7930,-0.3273,-0.0263,126.4900,-21.1500,-102.4700,9.4200,3.4300,4.8700,0.0000,0.0000,-0.0000,1997.0000,1938.0000,1500.0000,1976.0000
187014.7530,2.0000,1297.0000,2000.0000,1485.0000,187.0000,222.0000,30.0000,1548.0000,278.0000,-6112.0000,-0.5209,0.7796,-0.3476,0.0047,126.6800,-21.0800,-102.4300,9.4100,3.8700,4.7400,0.0000,0.0000,-0.0000,1065.0000,1951.0000,1500.0000,1335.0000
187031.8090,2.0000,1297.0000,2000.0000,1485.0000,221.0000,182.0000,22.0000,1494.0000,295.0000,-7772.0000,-0.5338,0.7622,-0.3646,0.0361,126.6800,-21.0800,-102.4300,9.4100,3.8700,4.7400,0.0000,0.0000,-0.0000,1065.0000,1951.0000,1500.0000,1335.0000
187049.0180,2.0000,1297.0000,2000.0000,1485.0000,247.0000,131.0000,15.0000,1117.0000,252.0000,-8281.0000,-0.5522,0.7411,-0.3763,0.0646,126.8900,-21.0000,-102.4100,9.3100,4.3800,4.4900,0.0000,0.0000,-0.0000,1065.0000,1951.0000,1500.0000,1335.0000
187065.8390,2.0000,1297.0000,2000.0000,1485.0000,220.0000,87.0000,10.0000,882.0000,190.0000,-7377.0000,-0.5717,0.7204,-0.3827,0.0875,127.0900,-20.9000,-102.4100,9.0800,4.9000,4.2000,0.0000,0.0000,-0.0000,1065.0000,1951.0000,1500.0000,1335.0000
187082.7230,2.0000,1297.0000,2000.0000,1485.0000,154.0000,36.0000,5.0000,513.0000,371.0000,-5863.0000,-0.5885,0.7035,-0.3848,0.1029,127.2800,-20.8000,-102.4100,8.8300,5.3000,4.0700,0.0000,0.0000,-0.0000,1065.0000,1951.0000,1500.0000,1335.0000
187099.6630,2.0000,1297.0000,2000.0000,1485.0000,76.0000,12.0000,7.0000,417.0000,87.0000,-4668.0000,-0.5992,0.6932,-0.3848,0.1107,127.4500,-20.7000,-102.4100,8.6200,5.5300,4.0400,0.0000,0.0000,-0.0000,1065.0000,1951.0000,1500.0000,1335.0000
187116.5930,2.0000,1079.0000,2000.0000,1375.0000,-1.0000,-9.0000,12.0000,373.0000,-44.0000,-4223.0000,-0.6032,0.6899,-0.3844,0.1113,127.6200,-20.6000,-102.4100,8.4800,5.6800,4.0500,0.0000,0.0000,-0.0000,1153.0000,1973.0000,1500.0000,1128.0000
187133.5700,2.0000,1079.0000,2000.0000,1375.0000,-54.0000,-32.0000,18.0000,162.0000,-242.0000,-3804.0000,-0.6017,0.6926,-0.3837,0.1053,127.6200,-20.6000,-102.4100,8.4800,5.6800,4.0500,0.0000,0.0000,-0.0000,1153.0000,1973.0000,1500.0000,1128.0000
187150.2250,2.0000,1079.0000,2000.0000,1375.0000,-95.0000,-39.0000,22.0000,-54.0000,-413.0000,-2732.0000,-0.5960,0.6994,-0.3829,0.0947,127.8100,-20.4900,-102.4000,8.3800,5.8100,4.0600,0.0000,0.0000,-0.0000,1153.0000,1973.0000,1500.0000,1128.0000
187167.3970,2.0000,1079.0000,2000.0000,1375.0000,-111.0000,-40.0000,25.0000,-182.0000,-313.0000,-1827.0000,-0.5874,0.7085,-0.3826,0.0812,127.9900,-20.3700,-102.3900,8.3300,5.8600,4.0700,0.0000,0.0000,-0.0000,1153.0000,1973.0000,1500.0000,1128.0000
187184.1190,2.0000,1079.0000,2000.0000,1375.0000,-117.0000,-37.0000,27.0000,-344.0000,-297.0000,-1190.0000,-0.5773,0.7182,-0.3827,0.0676,128.1700,-20.2600,-102.3800,8.3300,5.8200,4.1400,0.0000,0.0000,-0.0000,1153.0000,1973.0000,1500.0000,1128.0000
187201.1410,2.0000,1079.0000,2000.0000,1375.0000,-125.0000,-22.0000,26.0000,-404.0000,-337.0000,-916.0000,-0.5662,0.7278,-0.3832,0.0541,128.3400,-20.1600,-102.3700,8.3600,5.7100,4.2300,0.0000,0.0000,-0.0000,1153.0000,1973.0000,1500.0000,1128.0000
187218.2850,2.0000,1996.0000,1818.0000,1000.0000,-130.0000,-10.0000,30.0000,-395.0000,-202.0000,-1081.0000,-0.5535,0.7374,-0.3848,0.0419,128.5100,-20.0600,-102.3700,8.4000,5.5900,4.3300,0.0000,0.0000,-0.0000,1656.0000,1973.0000,1500.0000,1997.0000
187234.9960,2.0000,1996.0000,1818.0000,1000.0000,-114.0000,8.0000,36.0000,-425.0000,-214.0000,-729.0000,-0.5404,0.7460,-0.3879,0.0316,128.5100,-20.0600,-102.3700,8.4000,5.5900,4.3300,0.0000,0.0000,-0.0000,1656.0000,1973.0000,1500.0000,1997.0000
187251.7160,2.0000,1996.0000,1818.0000,1000.0000,-109.0000,38.0000,37.0000,-162.0000,-232.0000,-289.0000,-0.5268,0.7533,-0.3930,0.0239,128.7000,-19.9500,-102.3700,8.4400,5.5800,4.4400,0.0000,0.0000,-0.0000,1656.0000,1973.0000,1500.0000,1997.0000
187268.7470,2.0000,1996.0000,1818.0000,1000.0000,-71.0000,72.0000,43.0000,553.0000,-361.0000,-343.0000,-0.5138,0.7582,-0.4009,0.0209,128.9000,-19.8500,-102.3600,8.5200,5.5300,4.5600,0.0000,0.0000,-0.0000,1656.0000,1973.0000,1500.0000,1997.0000
187285.8530,2.0000,1996.0000,1818.0000,1000.0000,-25.0000,103.0000,48.0000,1182.0000,-544.0000,-987.0000,-0.5032,0.7593,-0.4119,0.0239,129.0800,-19.7500,-102.3400,8.6300,5.5200,4.7100,0.0000,0.0000,-0.0000,1656.0000,1973.0000,1500.0000,1997.0000
187302.3230,2.0000,1996.0000,1818.0000,1000.0000,16.0000,131.0000,51.0000,1418.0000,-808.0000,-2179.0000,-0.4964,0.7566,-0.4244,0.0320,129.2600,-19.6500,-102.3300,8.7500,5.6100,4.7800,0.0000,0.0000,-0.0000,1656.0000,1973.0000,1500.0000,1997.0000
187319.4540,2.0000,1993.0000,2000.0000,1248.0000,43.0000,151.0000,54.0000,1581.0000,-284.0000,-3594.0000,-0.4911,0.7507,-0.4395,0.0456,129.4400,-19.5500,-102.3100,8.8000,5.8100,4.7700,0.0000,0.0000,-0.0000,1293.0000,1958.0000,1500.0000,1994.0000
187336.2370,2.0000,1993.0000,2000.0000,1249.0000,60.0000,148.0000,55.0000,1630.0000,206.0000,-5032.0000,-0.4874,0.7430,-0.4547,0.0609,129.4400,-19.5500,-102.3100,8.8000,5.8100,4.7700,0.0000,0.0000,-0.0000,1293.0000,1958.0000,1500.0000,1994.0000
187353.2950,2.0000,1993.0000,2000.0000,1249.0000,58.0000,129.0000,56.0000,1629.0000,52.0000,-5321.0000,-0.4849,0.7343,-0.4690,0.0753,129.6400,-19.4300,-102.3100,8.6800,6.1900,4.7200,0.0000,0.0000,-0.0000,1293.0000,1958.0000,1500.0000,1994.0000
187370.1120,2.0000,1993.0000,2000.0000,1249.0000,28.0000,113.0000,53.0000,1509.0000,-249.0000,-5341.0000,-0.4820,0.7270,-0.4814,0.0862,129.8300,-19.3200,-102.3100,8.5000,6.5700,4.6300,0.0000,0.0000,-0.0000,1293.0000,1958.0000,1500.0000,1994.0000
187386.6910,2.0000,1993.0000,2000.0000,1249.0000,-12.0000,83.0000,48.0000,1176.0000,-281.0000,-5640.0000,-0.4764,0.7223,-0.4925,0.0932,130.0100,-19.1900,-102.3200,8.3000,6.9100,4.5000,0.0000,0.0000,-0.0000,1293.0000,1958.0000,1500.0000,1994.0000
187403.7690,2.0000,1993.0000,2000.0000,1249.0000,-44.0000,58.0000,44.0000,1196.0000,-117.0000,-5555.0000,-0.4684,0.7209,-0.5020,0.0947,130.1800,-19.0700,-102.3400,8.0800,7.1900,4.3800,0.0000,0.0000,-0.0000,1293.0000,1958.0000,1500.0000,1994.0000
187420.3490,2.0000,1992.0000,2000.0000,1348.0000,-63.0000,35.0000,39.0000,1071.0000,-22.0000,-5291.0000,-0.4600,0.7216,-0.5091,0.0923,130.3500,-18.9400,-102.3600,7.8800,7.4400,4.2800,0.0000,0.0000,-0.0000,1217.0000,1935.0000,1500.0000,1993.0000
187437.3630,2.0000,1992.0000,2000.0000,1349.0000,-77.0000,26.0000,33.0000,1345.0000,169.0000,-4894.0000,-0.4505,0.7242,-0.5148,0.0870,130.3500,-18.9400,-102.3600,7.8800,7.4400,4.2800,0.0000,0.0000,-0.0000,1217.0000,1935.0000,1500.0000,1993.0000
187454.1710,2.0000,1992.0000,2000.0000,1349.0000,-96.0000,12.0000,28.0000,1368.0000,90.0000,-4431.0000,-0.4404,0.7283,-0.5190,0.0797,130.5400,-18.7900,-102.3800,7.7300,7.6900,4.2100,0.0000,0.0000,-0.0000,1217.0000,1935.0000,1500.0000,1993.0000
187471.4040,2.0000,1992.0000,2000.0000,1349.0000,-117.0000,1.0000,22.0000,1520.0000,-47.0000,-3699.0000,-0.4284,0.7342,-0.5221,0.0695,130.7100,-18.6500,-102.4100,7.6200,7.8900,4.1600,0.0000,0.0000,-0.0000,1217.0000,1935.0000,1500.0000,1993.0000
187488.3650,2.0000,1992.0000,2000.0000,1349.0000,-128.0000,-7.0000,14.0000,1340.0000,-301.0000,-3354.0000,-0.4157,0.7414,-0.5237,0.0576,130.8800,-18.5100,-102.4300,7.5800,8.0400,4.1300,0.0000,0.0000,-0.0000,1217.0000,1935.0000,1500.0000,1993.0000
187505.1370,2.0000,1993.0000,2000.0000,1501.0000,-139.0000,-12.0000,7.0000,1599.0000,-146.0000,-2938.0000,-0.4017,0.7496,-0.5242,0.0450,131.0400,-18.3700,-102.4600,7.5800,8.1300,4.1400,0.0000,0.0000,-0.0000,1160.0000,1839.0000,1500.0000,1995.0000
187521.8980,2.0000,1994.0000,2000.0000,1502.0000,-147.0000,2.0000,2.0000,1500.0000,-187.0000,-2507.0000,-0.3862,0.7583,-0.5241,0.0327,131.2000,-18.2200,-102.4800,7.6300,8.2300,4.1800,0.0000,0.0000,-0.0000,1160.0000,1839.0000,1500.0000,1995.0000
187538.7730,2.0000,1994.0000,2000.0000,1502.0000,-166.0000,5.0000,-6.0000,1215.0000,-16.0000,-2622.0000,-0.3685,0.7679,-0.5236,0.0209,131.2000,-18.2200,-102.4800,7.6300,8.2300,4.1800,0.0000,0.0000,-0.0000,1160.0000,1839.0000,1500.0000,1995.0000
187555.3880,2.0000,1994.0000,2000.0000,1502.0000,-190.0000,21.0000,-11.0000,1148.0000,415.0000,-2884.0000,-0.3475,0.7785,-0.5225,0.0090,131.3900,-18.0600,-102.5000,7.6800,8.4300,4.2200,0.0000,0.0000,-0.0000,1160.0000,1839.0000,1500.0000,1995.0000
187572.4450,2.0000,1994.0000,2000.0000,1502.0000,-208.0000,23.0000,-17.0000,1480.0000,-8.0000,-2420.0000,-0.3223,0.7903,-0.5211,-0.0035,131.5600,-17.9000,-102.5100,7.6700,8.6000,4.2700,0.0000,0.0000,-0.0000,1160.0000,1839.0000,1500.0000,1995.0000
187589.2440,2.0000,1994.0000,2000.0000,1502.0000,-218.0000,33.0000,-24.0000,1294.0000,-276.0000,-2363.0000,-0.2955,0.8022,-0.5186,-0.0162,131.7300,-17.7500,-102.5200,7.7100,8.7500,4.3200,0.0000,0.0000,-0.0000,1160.0000,1839.0000,1500.0000,1995.0000
187606.1790,2.0000,1988.0000,1504.0000,2000.0000,-228.0000,42.0000,-28.0000,903.0000,-271.0000,-2787.0000,-0.2659,0.8143,-0.5152,-0.0280,131.8900,-17.6000,-102.5300,7.7800,8.8500,4.3300,0.0000,0.0000,-0.0000,1144.0000,1148.0000,1500.0000,1990.0000
187623.2380,2.0000,1988.0000,1504.0000,2000.0000,-238.0000,51.0000,-31.0000,1046.0000,-146.0000,-2932.0000,-0.2338,0.8261,-0.5113,-0.0388,132.0500,-17.4500,-102.5300,7.8000,8.9400,4.2900,0.0000,0.0000,-0.0000,1144.0000,1148.0000,1500.0000,1990.0000
187640.1800,2.0000,1988.0000,1504.0000,2000.0000,-256.0000,51.0000,-32.0000,1219.0000,27.0000,-3555.0000,-0.1996,0.8375,-0.5062,-0.0503,132.0500,-17.4500,-102.5300,7.8000,8.9400,4.2900,0.0000,0.0000,-0.0000,1144.0000,1148.0000,1500.0000,1990.0000
187657.0600,2.0000,1988.0000,1504.0000,2000.0000,-276.0000,19.0000,-29.0000,1228.0000,-132.0000,-4309.0000,-0.1641,0.8480,-0.4997,-0.0648,132.2300,-17.2700,-102.5400,7.7800,9.0800,4.2100,0.0000,0.0000,-0.0000,1144.0000,1148.0000,1500.0000,1990.0000
187674.0270,2.0000,1988.0000,1504.0000,2000.0000,-283.0000,-25.0000,-25.0000,971.0000,-77.0000,-4960.0000,-0.1287,0.8566,-0.4923,-0.0852,132.4100,-17.1000,-102.5400,7.7600,9.2200,4.0600,0.0000,0.0000,-0.0000,1144.0000,1148.0000,1500.0000,1990.0000
187690.7420,2.0000,1988.0000,1504.0000,2000.0000,-278.0000,-66.0000,-22.0000,840.0000,-185.0000,-4234.0000,-0.0972,0.8626,-0.4839,-0.1111,132.5700,-16.9400,-102.5400,7.7700,9.3300,3.8400,0.0000,0.0000,-0.0000,1144.0000,1148.0000,1500.0000,1990.0000
187707.3070,2.0000,1994.0000,1242.0000,2000.0000,-273.0000,-95.0000,-21.0000,891.0000,-136.0000,-2571.0000,-0.0686,0.8662,-0.4746,-0.1402,132.7300,-16.7700,-102.5300,7.8100,9.4000,3.7000,0.0000,0.0000,-0.0000,1454.0000,1081.0000,1500.0000,1998.0000
187724.3780,2.0000,1997.0000,1126.0000,1964.0000,-268.0000,-124.0000,-19.0000,685.0000,-247.0000,-532.0000,-0.0418,0.8677,-0.4640,-0.1733,132.9200,-16.5700,-102.5200,7.8400,9.4400,3.8400,0.0000,0.0000,-0.0000,1454.0000,1081.0000,1500.0000,1998.0000
187741.3930,2.0000,1997.0000,1126.0000,1964.0000,-261.0000,-130.0000,-20.0000,722.0000,-94.0000,1107.0000,-0.0165,0.8671,-0.4526,-0.2074,132.9200,-16.5700,-102.5200,7.8400,9.4400,3.8400,0.0000,0.0000,-0.0000,1454.0000,1081.0000,1500.0000,1998.0000
187758.1200,2.0000,1997.0000,1126.0000,1964.0000,-238.0000,-136.0000,-20.0000,1298.0000,271.0000,1910.0000,0.0064,0.8648,-0.4408,-0.2403,133.0900,-16.3900,-102.5000,7.8100,9.3900,4.2200,0.0000,0.0000,-0.0000,1454.0000,1081.0000,1500.0000,1998.0000
187775.3010,2.0000,1997.0000,1126.0000,1964.0000,-200.0000,-164.0000,-26.0000,1261.0000,-3.0000,2647.0000,0.0239,0.8603,-0.4290,-0.2745,133.2600,-16.2200,-102.4500,7.7000,9.3700,4.8100,0.0000,0.0000,-0.0000,1454.0000,1081.0000,1500.0000,1998.0000
187791.9530,2.0000,1997.0000,1126.0000,1964.0000,-160.0000,-190.0000,-33.0000,1198.0000,-420.0000,3838.0000,0.0344,0.8540,-0.4181,-0.3076,133.4100,-16.0600,-102.3700,7.5700,9.3300,5.4800,0.0000,0.0000,-0.0000,1454.0000,1081.0000,1500.0000,1998.0000
187808.9890,2.0000,1968.0000,1484.0000,2000.0000,-125.0000,-206.0000,-38.0000,956.0000,-471.0000,5100.0000,0.0388,0.8461,-0.4074,-0.3415,133.5700,-15.8900,-102.2700,7.4100,9.2700,6.2300,0.0000,0.0000,-0.0000,1076.0000,1064.0000,1500.0000,1971.0000
187825.7580,2.0000,1968.0000,1488.0000,2000.0000,-90.0000,-220.0000,-40.0000,1119.0000,-520.0000,6602.0000,0.0374,0.8368,-0.3977,-0.3745,133.7400,-15.7000,-102.1200,7.2100,9.2400,7.0900,0.0000,0.0000,-0.0000,1076.0000,1064.0000,1500.0000,1971.0000
187842.4970,2.0000,1968.0000,1488.0000,2000.0000,-71.0000,-215.0000,-37.0000,1572.0000,-827.0000,8289.0000,0.0325,0.8265,-0.3891,-0.4056,133.7400,-15.7000,-102.1200,7.2100,9.2400,7.0900,0.0000,0.0000,-0.0000,1076.0000,1064.0000,1500.0000,1971.0000
187859.1120,2.0000,1968.0000,1488.0000,2000.0000,-67.0000,-208.0000,-32.0000,2029.0000,-965.0000,10010.0000,0.0266,0.8154,-0.3814,-0.4347,133.9000,-15.5100,-101.9500,6.8900,9.1400,8.0600,0.0000,0.0000,-0.0000,1076.0000,1064.0000,1500.0000,1971.0000
187876.1220,2.0000,1968.0000,1488.0000,2000.0000,-87.0000,-187.0000,-22.0000,1994.0000,-1156.0000,11581.0000,0.0232,0.8036,-0.3732,-0.4631,134.0400,-15.3400,-101.7600,6.4600,8.9900,9.1300,0.0000,0.0000,-0.0000,1076.0000,1064.0000,1500.0000,1971.0000
187892.8110,2.0000,1968.0000,1488.0000,2000.0000,-105.0000,-157.0000,-10.0000,1943.0000,-1298.0000,12321.0000,0.0244,0.7926,-0.3644,-0.4883,134.1700,-15.1800,-101.5300,5.8900,8.7500,10.2500,0.0000,0.0000,-0.0000,1076.0000,1064.0000,1500.0000,1971.0000
187909.4750,2.0000,1968.0000,1488.0000,2000.0000,-120.0000,-128.0000,1.0000,1708.0000,-1243.0000,11818.0000,0.0298,0.7822,-0.3556,-0.5107,134.2900,-15.0200,-101.2800,5.2700,8.5000,11.3200,0.0000,0.0000,-0.0000,1076.0000,1064.0000,1500.0000,1971.0000
187926.3710,2.0000,1964.0000,1496.0000,2000.0000,-124.0000,-103.0000,11.0000,1516.0000,-1093.0000,10910.0000,0.0388,0.7728,-0.3468,-0.5301,134.4200,-14.8300,-101.0100,4.7000,8.3500,12.2400,0.0000,0.0000,-0.0000,1069.0000,1065.0000,1500.0000,1967.0000
187943.1100,2.0000,1964.0000,1496.0000,2000.0000,-122.0000,-74.0000,23.0000,1176.0000,-632.0000,9484.0000,0.0502,0.7646,-0.3389,-0.5460,134.4200,-14.8300,-101.0100,4.7000,8.3500,12.2400,0.0000,0.0000,-0.0000,1069.0000,1065.0000,1500.0000,1967.0000
187960.1250,2.0000,1964.0000,1496.0000,2000.0000,-124.0000,-57.0000,35.0000,1095.0000,-340.0000,7800.0000,0.0638,0.7573,-0.3318,-0.5589,134.5300,-14.6600,-100.7100,4.2100,8.2600,13.0200,0.0000,0.0000,-0.0000,1069.0000,1065.0000,1500.0000,1967.0000
187976.9130,2.0000,1964.0000,1496.0000,2000.0000,-126.0000,-46.0000,48.0000,1211.0000,-719.0000,7202.0000,0.0793,0.7501,-0.3258,-0.5701,134.6200,-14.4900,-100.4100,3.8800,8.2600,13.6300,0.0000,0.0000,-0.0000,1069.0000,1065.0000,1500.0000,1967.0000
187993.8050,2.0000,1964.0000,1496.0000,2000.0000,-131.0000,-51.0000,52.0000,987.0000,-725.0000,6532.0000,0.0958,0.7422,-0.3204,-0.5808,134.7100,-14.3300,-100.0900,3.6500,8.2900,14.1800,0.0000,0.0000,-0.0000,1069.0000,1065.0000,1500.0000,1967.0000
188010.6240,2.0000,1966.0000,1487.0000,2000.0000,-141.0000,-55.0000,53.0000,1031.0000,-514.0000,6144.0000,0.1130,0.7333,-0.3145,-0.5921,134.8000,-14.1600,-99.7700,3.5000,8.3700,14.6700,0.0000,0.0000,-0.0000,1077.0000,1063.0000,1500.0000,1970.0000
188027.3140,2.0000,1967.0000,1486.0000,2000.0000,-159.0000,-60.0000,51.0000,992.0000,-252.0000,5549.0000,0.1316,0.7237,-0.3072,-0.6039,134.9100,-13.9600,-99.4300,3.4200,8.5700,15.1000,0.0000,0.0000,-0.0000,1077.0000,1063.0000,1500.0000,1970.0000
188044.2220,2.0000,1967.0000,1486.0000,2000.0000,-175.0000,-77.0000,45.0000,937.0000,-165.0000,5371.0000,0.1515,0.7122,-0.2977,-0.6174,134.9100,-13.9600,-99.4300,3.4200,8.5700,15.1000,0.0000,0.0000,-0.0000,1077.0000,1063.0000,1500.0000,1970.0000
188061.0520,2.0000,1967.0000,1486.0000,2000.0000,-189.0000,-90.0000,39.0000,809.0000,242.0000,5318.0000,0.1713,0.6985,-0.2865,-0.6330,135.0200,-13.7700,-99.0900,3.3700,8.7800,15.4700,0.0000,0.0000,-0.0000,1077.0000,1063.0000,1500.0000,1970.0000
188077.9350,2.0000,1967.0000,1486.0000,2000.0000,-203.0000,-99.0000,26.0000,723.0000,448.0000,5787.0000,0.1913,0.6833,-0.2730,-0.6496,135.1100,-13.5800,-98.7500,3.2900,8.9900,15.7600,0.0000,0.0000,-0.0000,1077.0000,1063.0000,1500.0000,1970.0000
188094.4710,2.0000,1967.0000,1486.0000,2000.0000,-213.0000,-109.0000,13.0000,781.0000,467.0000,6516.0000,0.2100,0.6668,-0.2574,-0.6671,135.2000,-13.4000,-98.4100,3.1400,9.2000,15.9900,0.0000,0.0000,-0.0000,1077.0000,1063.0000,1500.0000,1970.0000
188111.1020,2.0000,1000.0000,1467.0000,2000.0000,-221.0000,-118.0000,-1.0000,836.0000,230.0000,7364.0000,0.2278,0.6486,-0.2396,-0.6855,135.3000,-13.2000,-98.0600,2.8700,9.3900,16.1900,0.0000,0.0000,-0.0000,1170.0000,1069.0000,1500.0000,1052.0000
188127.7970,2.0000,1000.0000,1399.0000,2000.0000,-219.0000,-118.0000,-14.0000,649.0000,78.0000,8053.0000,0.2446,0.6299,-0.2198,-0.7036,135.3900,-12.9800,-97.7200,2.5100,9.5600,16.3500,0.0000,0.0000,-0.0000,1170.0000,1069.0000,1500.0000,1052.0000
188144.5130,2.0000,1000.0000,1399.0000,2000.0000,-210.0000,-113.0000,-24.0000,684.0000,-183.0000,8706.0000,0.2594,0.6108,-0.1992,-0.7211,135.3900,-12.9800,-97.7200,2.5100,9.5600,16.3500,0.0000,0.0000,-0.0000,1170.0000,1069.0000,1500.0000,1052.0000
188161.6200,2.0000,1000.0000,1399.0000,2000.0000,-191.0000,-112.0000,-35.0000,474.0000,-235.0000,9010.0000,0.2718,0.5916,-0.1784,-0.7378,135.4800,-12.7700,-97.3700,2.0700,9.7000,16.4400,0.0000,0.0000,-0.0000,1170.0000,1069.0000,1500.0000,1052.0000
188178.6060,2.0000,1000.0000,1399.0000,2000.0000,-178.0000,-109.0000,-42.0000,105.0000,-233.0000,9157.0000,0.2817,0.5729,-0.1583,-0.7532,135.5500,-12.5700,-97.0300,1.6200,9.8400,16.4600,0.0000,0.0000,-0.0000,1170.0000,1069.0000,1500.0000,1052.0000
188195.0750,2.0000,1000.0000,1399.0000,2000.0000,-167.0000,-105.0000,-47.0000,-38.0000,-204.0000,9261.0000,0.2896,0.5553,-0.1394,-0.7671,135.6100,-12.3700,-96.6900,1.1700,9.9700,16.3700,0.0000,0.0000,-0.0000,1170.0000,1069.0000,1500.0000,1052.0000
188211.7790,2.0000,1828.0000,1487.0000,2000.0000,-156.0000,-103.0000,-47.0000,-256.0000,-167.0000,9176.0000,0.2961,0.5378,-0.1212,-0.7800,135.6600,-12.1600,-96.3500,0.6700,10.0900,16.2100,0.0000,0.0000,-0.0000,1064.0000,1060.0000,1500.0000,1912.0000
188228.6550,2.0000,1906.0000,1496.0000,2000.0000,-154.0000,-102.0000,-43.0000,-428.0000,-348.0000,9041.0000,0.3022,0.5201,-0.1036,-0.7921,135.6600,-12.1600,-96.3500,0.6700,10.0900,16.2100,0.0000,0.0000,-0.0000,1064.0000,1060.0000,1500.0000,1912.0000
188245.4270,2.0000,1906.0000,1496.0000,2000.0000,-152.0000,-99.0000,-39.0000,-482.0000,-557.0000,9114.0000,0.3086,0.5023,-0.0866,-0.8031,135.7000,-11.9400,-96.0300,0.1500,10.2100,16.0000,0.0000,0.0000,-0.0000,1064.0000,1060.0000,1500.0000,1912.0000
188262.2550,2.0000,1906.0000,1496.0000,2000.0000,-158.0000,-85.0000,-29.0000,-140.0000,-574.0000,9375.0000,0.3158,0.4849,-0.0694,-0.8126,135.7300,-11.7200,-95.7000,-0.3400,10.3100,15.7400,0.0000,0.0000,-0.0000,1064.0000,1060.0000,1500.0000,1912.0000
188279.2470,2.0000,1906.0000,1496.0000,2000.0000,-166.0000,-74.0000,-21.0000,425.0000,-634.0000,9468.0000,0.3245,0.4678,-0.0512,-0.8206,135.7500,-11.5100,-95.3900,-0.8300,10.4300,15.4500,0.0000,0.0000,-0.0000,1064.0000,1060.0000,1500.0000,1912.0000
188295.8920,2.0000,1906.0000,1496.0000,2000.0000,-169.0000,-63.0000,-11.0000,709.0000,-635.0000,9204.0000,0.3344,0.4515,-0.0327,-0.8266,135.7600,-11.3000,-95.0800,-1.2700,10.6100,15.1600,0.0000,0.0000,-0.0000,1064.0000,1060.0000,1500.0000,1912.0000
188312.6280,2.0000,1993.0000,1313.0000,2000.0000,-166.0000,-65.0000,-1.0000,720.0000,-754.0000,8796.0000,0.3452,0.4357,-0.0146,-0.8312,135.7600,-11.0800,-94.7800,-1.6900,10.7900,14.9100,0.0000,0.0000,-0.0000,1258.0000,1070.0000,1500.0000,1995.0000
188329.6150,2.0000,1994.0000,1311.0000,2000.0000,-175.0000,-69.0000,11.0000,808.0000,-919.0000,8593.0000,0.3574,0.4190,0.0034,-0.8347,135.7600,-11.0800,-94.7800,-1.6900,10.7900,14.9100,0.0000,0.0000,-0.0000,1258.0000,1070.0000,1500.0000,1995.0000
188346.2230,2.0000,1994.0000,1311.0000,2000.0000,-172.0000,-74.0000,20.0000,630.0000,-794.0000,7955.0000,0.3705,0.4010,0.0200,-0.8376,135.7600,-10.8500,-94.4800,-2.0900,10.9300,14.6700,0.0000,0.0000,-0.0000,1258.0000,1070.0000,1500.0000,1995.0000
188362.8910,2.0000,1994.0000,1311.0000,2000.0000,-158.0000,-88.0000,27.0000,562.0000,-683.0000,7201.0000,0.3839,0.3822,0.0347,-0.8398,135.7700,-10.6200,-94.1900,-2.3600,11.0600,14.4200,0.0000,0.0000,-0.0000,1258.0000,1070.0000,1500.0000,1995.0000
188379.8080,2.0000,1994.0000,1311.0000,2000.0000,-141.0000,-108.0000,30.0000,651.0000,-544.0000,7216.0000,0.3970,0.3612,0.0461,-0.8425,135.7700,-10.4000,-93.9000,-2.4800,11.1500,14.1900,0.0000,0.0000,-0.0000,1258.0000,1070.0000,1500.0000,1995.0000
188396.4450,2.0000,1994.0000,1311.0000,2000.0000,-133.0000,-132.0000,31.0000,769.0000,-362.0000,7655.0000,0.4093,0.3385,0.0547,-0.8455,135.7600,-10.1900,-93.6200,-2.5400,11.2600,13.9400,0.0000,0.0000,-0.0000,1258.0000,1070.0000,1500.0000,1995.0000
188413.2050,2.0000,1997.0000,1092.0000,1930.0000,-128.0000,-147.0000,31.0000,842.0000,-297.0000,8636.0000,0.4211,0.3134,0.0613,-0.8489,135.7500,-9.9600,-93.3500,-2.7600,11.4300,13.6100,0.0000,0.0000,-0.0000,1488.0000,1081.0000,1500.0000,1998.0000
188430.2300,2.0000,1997.0000,1092.0000,1930.0000,-112.0000,-158.0000,28.0000,912.0000,-235.0000,9280.0000,0.4321,0.2866,0.0656,-0.8526,135.7500,-9.9600,-93.3500,-2.7600,11.4300,13.6100,0.0000,0.0000,-0.0000,1488.0000,1081.0000,1500.0000,1998.0000
188446.8980,2.0000,1997.0000,1092.0000,1930.0000,-86.0000,-176.0000,19.0000,831.0000,-370.0000,10422.0000,0.4411,0.2594,0.0664,-0.8566,135.7300,-9.7200,-93.0700,-3.1100,11.6500,13.1800,0.0000,0.0000,-0.0000,1488.0000,1081.0000,1500.0000,1998.0000
188463.7950,2.0000,1997.0000,1092.0000,1930.0000,-67.0000,-180.0000,10.0000,893.0000,-555.0000,11737.0000,0.4479,0.2324,0.0641,-0.8610,135.6900,-9.4700,-92.8100,-3.4500,11.8700,12.6000,0.0000,0.0000,-0.0000,1488.0000,1081.0000,1500.0000,1998.0000
188480.5590,2.0000,1997.0000,1092.0000,1930.0000,-58.0000,-177.0000,4.0000,1002.0000,-668.0000,12751.0000,0.4527,0.2059,0.0601,-0.8655,135.6600,-9.2400,-92.5600,-3.7600,12.0700,11.8600,0.0000,0.0000,-0.0000,1488.0000,1081.0000,1500.0000,1998.0000
188497.3010,2.0000,1997.0000,1092.0000,1930.0000,-57.0000,-169.0000,-1.0000,1240.0000,-617.0000,13177.0000,0.4564,0.1804,0.0562,-0.8695,135.6100,-9.0200,-92.3300,-4.0400,12.2500,11.0000,0.0000,0.0000,-0.0000,1488.0000,1081.0000,1500.0000,1998.0000
188514.1460,2.0000,1997.0000,1127.0000,1965.0000,-62.0000,-158.0000,-5.0000,1411.0000,-505.0000,13397.0000,0.4590,0.1557,0.0529,-0.8731,135.5500,-8.7700,-92.1200,-4.4400,12.4600,10.0700,0.0000,0.0000,-0.0000,1452.0000,1081.0000,1500.0000,1998.0000
188531.2390,2.0000,1997.0000,1128.0000,1966.0000,-57.0000,-136.0000,-10.0000,1329.0000,-355.0000,13125.0000,0.4607,0.1324,0.0509,-0.8762,135.5500,-8.7700,-92.1200,-4.4400,12.4600,10.0700,0.0000,0.0000,-0.0000,1452.0000,1081.0000,1500.0000,1998.0000
188548.1200,2.0000,1997.0000,1128.0000,1966.0000,-59.0000,-111.0000,-17.0000,1080.0000,-462.0000,13142.0000,0.4611,0.1121,0.0504,-0.8788,135.4700,-8.5100,-91.9300,-4.8500,12.6800,9.1000,0.0000,0.0000,-0.0000,1452.0000,1081.0000,1500.0000,1998.0000
188564.9870,2.0000,1997.0000,1128.0000,1966.0000,-60.0000,-86.0000,-23.0000,698.0000,-617.0000,12420.0000,0.4606,0.0954,0.0516,-0.8810,135.3900,-8.2500,-91.7500,-5.1700,12.8100,8.0900,0.0000,0.0000,-0.0000,1452.0000,1081.0000,1500.0000,1998.0000
188581.9330,2.0000,1997.0000,1128.0000,1966.0000,-57.0000,-62.0000,-25.0000,681.0000,-595.0000,11140.0000,0.4588,0.0820,0.0547,-0.8830,135.3000,-8.0100,-91.6000,-5.4000,12.8700,7.1400,0.0000,0.0000,-0.0000,1452.0000,1081.0000,1500.0000,1998.0000
188598.7060,2.0000,1997.0000,1128.0000,1966.0000,-54.0000,-65.0000,-31.0000,853.0000,-450.0000,9839.0000,0.4564,0.0699,0.0581,-0.8851,135.2200,-7.7800,-91.4700,-5.5500,12.8700,6.3300,0.0000,0.0000,-0.0000,1452.0000,1081.0000,1500.0000,1998.0000
188615.3740,2.0000,1997.0000,1135.0000,1973.0000,-53.0000,-71.0000,-35.0000,770.0000,-627.0000,9619.0000,0.4531,0.0572,0.0607,-0.8876,135.1000,-7.5200,-91.3500,-5.8700,12.9900,5.6300,0.0000,0.0000,-0.0000,1444.0000,1081.0000,1500.0000,1998.0000
188632.1370,2.0000,1997.0000,1136.0000,1974.0000,-48.0000,-71.0000,-31.0000,776.0000,-790.0000,9027.0000,0.4497,0.0442,0.0629,-0.8899,135.1000,-7.5200,-91.3500,-5.8700,12.9900,5.6300,0.0000,0.0000,-0.0000,1444.0000,1081.0000,1500.0000,1998.0000
188649.2820,2.0000,1997.0000,1136.0000,1974.0000,-44.0000,-83.0000,-26.0000,748.0000,-858.0000,8599.0000,0.4468,0.0308,0.0639,-0.8918,134.9700,-7.2400,-91.2400,-6.3000,13.1700,4.9700,0.0000,0.0000,-0.0000,1444.0000,1081.0000,1500.0000,1998.0000
188666.0560,2.0000,1997.0000,1136.0000,1974.0000,-39.0000,-101.0000,-19.0000,517.0000,-777.0000,8326.0000,0.4448,0.0157,0.0632,-0.8932,134.8300,-6.9800,-91.1400,-6.6700,13.2900,4.3700,0.0000,0.0000,-0.0000,1444.0000,1081.0000,1500.0000,1998.0000
188683.0640,2.0000,1997.0000,1136.0000,1974.0000,-39.0000,-120.0000,-12.0000,648.0000,-791.0000,8499.0000,0.4437,-0.0016,0.0611,-0.8941,134.7000,-6.7200,-91.0500,-6.9700,13.3600,3.8100,0.0000,0.0000,-0.0000,1444.0000,1081.0000,1500.0000,1998.0000
188699.5650,2.0000,1997.0000,1136.0000,1974.0000,-40.0000,-138.0000,-4.0000,885.0000,-885.0000,9143.0000,0.4436,-0.0209,0.0579,-0.8941,134.5600,-6.4700,-90.9800,-7.2100,13.4200,3.2200,0.0000,0.0000,-0.0000,1444.0000,1081.0000,1500.0000,1998.0000
188716.1640,2.0000,1997.0000,1108.0000,1946.0000,-38.0000,-150.0000,4.0000,1109.0000,-1148.0000,10103.0000,0.4445,-0.0421,0.0536,-0.8932,134.3800,-6.1900,-90.9200,-7.6400,13.5900,2.5400,0.0000,0.0000,-0.0000,1472.0000,1081.0000,1500.0000,1998.0000
188732.9790,2.0000,1997.0000,1108.0000,1946.0000,-43.0000,-161.0000,10.0000,1153.0000,-814.0000,10353.0000,0.4461,-0.0650,0.0488,-0.8913,134.3800,-6.1900,-90.9200,-7.6400,13.5900,2.5400,0.0000,0.0000,-0.0000,1472.0000,1081.0000,1500.0000,1998.0000
188749.8730,2.0000,1997.0000,1108.0000,1946.0000,-45.0000,-162.0000,15.0000,1187.0000,-878.0000,11223.0000,0.4484,-0.0892,0.0441,-0.8883,134.1900,-5.9000,-90.8600,-8.1000,13.8100,1.8000,0.0000,0.0000,-0.0000,1472.0000,1081.0000,1500.0000,1998.0000
188767.1270,2.0000,1997.0000,1108.0000,1946.0000,-41.0000,-157.0000,19.0000,1492.0000,-825.0000,11729.0000,0.4512,-0.1132,0.0392,-0.8843,133.9900,-5.6200,-90.8200,-8.4500,13.9800,0.9900,0.0000,0.0000,-0.0000,1472.0000,1081.0000,1500.0000,1998.0000
188784.0020,2.0000,1997.0000,1108.0000,1946.0000,-44.0000,-150.0000,23.0000,1517.0000,-854.0000,12160.0000,0.4537,-0.1358,0.0349,-0.8800,133.7900,-5.3300,-90.8000,-8.7300,14.1100,0.1000,0.0000,0.0000,-0.0000,1472.0000,1081.0000,1500.0000,1998.0000
188800.7260,2.0000,1997.0000,1108.0000,1946.0000,-47.0000,-144.0000,24.0000,1289.0000,-1016.0000,12626.0000,0.4562,-0.1576,0.0316,-0.8752,133.6000,-5.0600,-90.8000,-8.9300,14.1800,-0.8200,0.0000,0.0000,-0.0000,1472.0000,1081.0000,1500.0000,1998.0000
188817.4680,2.0000,1997.0000,1088.0000,1926.0000,-51.0000,-129.0000,23.0000,1191.0000,-871.0000,12458.0000,0.4585,-0.1782,0.0293,-0.8701,133.3700,-4.7500,-90.8100,-9.1500,14.3300,-1.7700,0.0000,0.0000,-0.0000,1492.0000,1081.0000,1500.0000,1998.0000
188834.2860,2.0000,1997.0000,1088.0000,1926.0000,-50.0000,-103.0000,19.0000,1110.0000,-579.0000,11844.0000,0.4602,-0.1962,0.0287,-0.8654,133.3700,-4.7500,-90.8100,-9.1500,14.3300,-1.7700,0.0000,0.0000,-0.0000,1492.0000,1081.0000,1500.0000,1998.0000
188851.3420,2.0000,1997.0000,1088.0000,1926.0000,-47.0000,-81.0000,12.0000,1012.0000,-498.0000,11015.0000,0.4611,-0.2115,0.0291,-0.8613,133.1200,-4.4300,-90.8300,-9.3800,14.5500,-2.6400,0.0000,0.0000,-0.0000,1492.0000,1081.0000,1500.0000,1998.0000
188868.1690,2.0000,1997.0000,1088.0000,1926.0000,-56.0000,-52.0000,10.0000,1052.0000,-441.0000,10009.0000,0.4611,-0.2231,0.0315,-0.8583,132.8800,-4.1100,-90.8700,-9.5800,14.7600,-3.4300,0.0000,0.0000,-0.0000,1492.0000,1081.0000,1500.0000,1998.0000
188885.0540,2.0000,1997.0000,1088.0000,1926.0000,-54.0000,-44.0000,5.0000,1107.0000,-588.0000,9376.0000,0.4599,-0.2328,0.0356,-0.8561,132.6400,-3.8100,-90.9300,-9.7900,14.9700,-4.1100,0.0000,0.0000,-0.0000,1492.0000,1081.0000,1500.0000,1998.0000
188901.6230,2.0000,1997.0000,1088.0000,1926.0000,-47.0000,-53.0000,-1.0000,1018.0000,-528.0000,8377.0000,0.4584,-0.2421,0.0387,-0.8543,132.4000,-3.5100,-90.9900,-10.0100,15.1500,-4.7000,0.0000,0.0000,-0.0000,1492.0000,1081.0000,1500.0000,1998.0000
188918.4210,2.0000,1995.0000,1254.0000,2000.0000,-44.0000,-56.0000,-5.0000,864.0000,-353.0000,7611.0000,0.4563,-0.2521,0.0407,-0.8524,132.1300,-3.1700,-91.0600,-10.2900,15.3800,-5.1900,0.0000,0.0000,-0.0000,1319.0000,1074.0000,1500.0000,1996.0000
188935.3000,2.0000,1995.0000,1254.0000,2000.0000,-44.0000,-70.0000,-8.0000,735.0000,-390.0000,7247.0000,0.4536,-0.2630,0.0417,-0.8505,132.1300,-3.1700,-91.0600,-10.2900,15.3800,-5.1900,0.0000,0.0000,-0.0000,1319.0000,1074.0000,1500.0000,1996.0000
188952.2060,2.0000,1995.0000,1254.0000,2000.0000,-46.0000,-86.0000,-7.0000,915.0000,-494.0000,7175.0000,0.4510,-0.2758,0.0419,-0.8478,131.8400,-2.8100,-91.1400,-10.5600,15.6200,-5.5900,0.0000,0.0000,-0.0000,1319.0000,1074.0000,1500.0000,1996.0000
188968.9870,2.0000,1995.0000,1254.0000,2000.0000,-60.0000,-94.0000,-2.0000,1138.0000,-642.0000,7489.0000,0.4485,-0.2905,0.0425,-0.8442,131.5600,-2.4700,-91.2300,-10.8000,15.8100,-5.9500,0.0000,0.0000,-0.0000,1319.0000,1074.0000,1500.0000,1996.0000
188985.8400,2.0000,1995.0000,1254.0000,2000.0000,-74.0000,-113.0000,2.0000,1172.0000,-759.0000,7751.0000,0.4457,-0.3077,0.0444,-0.8395,131.2900,-2.1400,-91.3200,-10.9900,15.9700,-6.3500,0.0000,0.0000,-0.0000,1319.0000,1074.0000,1500.0000,1996.0000
189002.9090,2.0000,1995.0000,1254.0000,2000.0000,-76.0000,-128.0000,7.0000,1010.0000,-632.0000,7593.0000,0.4432,-0.3278,0.0460,-0.8331,131.0200,-1.8100,-91.4200,-11.1200,16.0800,-6.7400,0.0000,0.0000,-0.0000,1319.0000,1074.0000,1500.0000,1996.0000
189019.6550,2.0000,1996.0000,1132.0000,1974.0000,-79.0000,-141.0000,12.0000,978.0000,-609.0000,8014.0000,0.4413,-0.3491,0.0471,-0.8253,130.7300,-1.4600,-91.5300,-11.1600,16.1900,-7.1200,0.0000,0.0000,-0.0000,1505.0000,1081.0000,1500.0000,1998.0000
189036.6800,2.0000,1997.0000,1078.0000,1916.0000,-87.0000,-151.0000,17.0000,1151.0000,-784.0000,8773.0000,0.4395,-0.3723,0.0486,-0.8160,130.7300,-1.4600,-91.5300,-11.1600,16.1900,-7.1200,0.0000,0.0000,-0.0000,1505.0000,1081.0000,1500.0000,1998.0000
189053.7190,2.0000,1997.0000,1078.0000,1916.0000,-80.0000,-154.0000,19.0000,1112.0000,-780.0000,9107.0000,0.4382,-0.3961,0.0499,-0.8054,130.4400,-1.0900,-91.6500,-11.0900,16.2500,-7.5300,0.0000,0.0000,-0.0000,1505.0000,1081.0000,1500.0000,1998.0000
189070.8460,2.0000,1997.0000,1078.0000,1916.0000,-61.0000,-160.0000,18.0000,1267.0000,-769.0000,9588.0000,0.4374,-0.4193,0.0492,-0.7940,130.1600,-0.7500,-91.7800,-10.9400,16.2500,-7.9600,0.0000,0.0000,-0.0000,1505.0000,1081.0000,1500.0000,1998.0000
189087.6750,2.0000,1997.0000,1078.0000,1916.0000,-46.0000,-161.0000,16.0000,1449.0000,-690.0000,9947.0000,0.4366,-0.4413,0.0461,-0.7826,129.9000,-0.4200,-91.9100,-10.7300,16.2200,-8.3900,0.0000,0.0000,-0.0000,1505.0000,1081.0000,1500.0000,1998.0000
189104.5390,2.0000,1997.0000,1066.0000,1904.0000,-38.0000,-153.0000,16.0000,1650.0000,-771.0000,10480.0000,0.4363,-0.4621,0.0420,-0.7709,129.6600,-0.1000,-92.0500,-10.4600,16.1500,-8.8200,0.0000,0.0000,-0.0000,1518.0000,1081.0000,1500.0000,1998.0000
189121.2060,2.0000,1997.0000,1065.0000,1903.0000,-35.0000,-150.0000,14.0000,1619.0000,-782.0000,10695.0000,0.4363,-0.4811,0.0375,-0.7595,129.3900,0.2400,-92.2100,-10.1200,16.0800,-9.2800,0.0000,0.0000,-0.0000,1518.0000,1081.0000,1500.0000,1998.0000
189138.1860,2.0000,1997.0000,1065.0000,1903.0000,-33.0000,-135.0000,13.0000,1563.0000,-522.0000,10283.0000,0.4361,-0.4994,0.0330,-0.7479,129.3900,0.2400,-92.2100,-10.1200,16.0800,-9.2800,0.0000,0.0000,-0.0000,1518.0000,1081.0000,1500.0000,1998.0000
189154.8550,2.0000,1997.0000,1065.0000,1903.0000,-30.0000,-128.0000,10.0000,1537.0000,-503.0000,10007.0000,0.4357,-0.5154,0.0289,-0.7373,129.1300,0.5900,-92.3700,-9.7600,15.9900,-9.6800,0.0000,0.0000,-0.0000,1518.0000,1081.0000,1500.0000,1998.0000
189171.9260,2.0000,1997.0000,1065.0000,1903.0000,-30.0000,-114.0000,7.0000,1349.0000,-631.0000,9975.0000,0.4347,-0.5304,0.0251,-0.7274,128.8900,0.9400,-92.5400,-9.4200,15.9000,-10.0100,0.0000,0.0000,-0.0000,1518.0000,1081.0000,1500.0000,1998.0000
189188.6170,2.0000,1997.0000,1065.0000,1903.0000,-31.0000,-96.0000,3.0000,1281.0000,-758.0000,9589.0000,0.4327,-0.5431,0.0226,-0.7192,128.6700,1.2500,-92.7100,-9.1100,15.7600,-10.3000,0.0000,0.0000,-0.0000,1518.0000,1081.0000,1500.0000,1998.0000
189205.3510,2.0000,1997.0000,1122.0000,1960.0000,-23.0000,-81.0000,4.0000,1200.0000,-877.0000,8950.0000,0.4306,-0.5538,0.0208,-0.7123,128.4500,1.5600,-92.8900,-8.8300,15.6100,-10.5600,0.0000,0.0000,-0.0000,1457.0000,1081.0000,1500.0000,1998.0000
189222.3820,2.0000,1997.0000,1123.0000,1961.0000,-24.0000,-68.0000,2.0000,1144.0000,-789.0000,8121.0000,0.4287,-0.5630,0.0191,-0.7063,128.2100,1.9000,-93.0700,-8.6500,15.5100,-10.7600,0.0000,0.0000,-0.0000,1457.0000,1081.0000,1500.0000,1998.0000
189239.1780,2.0000,1997.0000,1123.0000,1961.0000,-24.0000,-61.0000,0.0000,1309.0000,-555.0000,7232.0000,0.4266,-0.5710,0.0183,-0.7012,128.2100,1.9000,-93.0700,-8.6500,15.5100,-10.7600,0.0000,0.0000,-0.0000,1457.0000,1081.0000,1500.0000,1998.0000
189256.2150,2.0000,1997.0000,1123.0000,1961.0000,-29.0000,-57.0000,-1.0000,1086.0000,-638.0000,6868.0000,0.4241,-0.5788,0.0175,-0.6963,127.9800,2.2400,-93.2600,-8.5500,15.4900,-10.8900,0.0000,0.0000,-0.0000,1457.0000,1081.0000,1500.0000,1998.0000
189273.3230,2.0000,1997.0000,1123.0000,1961.0000,-41.0000,-49.0000,0.0000,926.0000,-737.0000,6311.0000,0.4209,-0.5862,0.0179,-0.6920,127.7500,2.5700,-93.4400,-8.5200,15.4800,-10.9700,0.0000,0.0000,-0.0000,1457.0000,1081.0000,1500.0000,1998.0000
189290.2950,2.0000,1997.0000,1123.0000,1961.0000,-45.0000,-57.0000,3.0000,950.0000,-709.0000,5632.0000,0.4167,-0.5945,0.0195,-0.6874,127.5200,2.8900,-93.6100,-8.5600,15.4800,-11.0100,0.0000,0.0000,-0.0000,1457.0000,1081.0000,1500.0000,1998.0000
189307.1650,2.0000,1997.0000,1106.0000,1944.0000,-43.0000,-72.0000,2.0000,1132.0000,-594.0000,5028.0000,0.4128,-0.6034,0.0210,-0.6819,127.3100,3.1900,-93.7800,-8.6500,15.5100,-11.0300,0.0000,0.0000,-0.0000,1491.0000,1081.0000,1500.0000,1998.0000
189324.1040,2.0000,1997.0000,1089.0000,1927.0000,-40.0000,-81.0000,4.0000,1330.0000,-440.0000,4846.0000,0.4095,-0.6135,0.0209,-0.6749,127.0700,3.5200,-93.9600,-8.5700,15.4900,-11.0100,0.0000,0.0000,-0.0000,1491.0000,1081.0000,1500.0000,1998.0000
189340.9890,2.0000,1997.0000,1089.0000,1927.0000,-38.0000,-96.0000,5.0000,1451.0000,-509.0000,5082.0000,0.4063,-0.6246,0.0200,-0.6666,127.0700,3.5200,-93.9600,-8.5700,15.4900,-11.0100,0.0000,0.0000,-0.0000,1491.0000,1081.0000,1500.0000,1998.0000
189358.3060,2.0000,1997.0000,1089.0000,1927.0000,-33.0000,-118.0000,6.0000,1439.0000,-558.0000,5275.0000,0.4035,-0.6373,0.0180,-0.6563,126.8400,3.8500,-94.1400,-8.4100,15.4300,-10.9900,0.0000,0.0000,-0.0000,1491.0000,1081.0000,1500.0000,1998.0000
189375.4070,2.0000,1997.0000,1089.0000,1927.0000,-30.0000,-133.0000,9.0000,1330.0000,-653.0000,5600.0000,0.4011,-0.6515,0.0146,-0.6438,126.6300,4.1700,-94.3200,-8.2300,15.3500,-10.9500,0.0000,0.0000,-0.0000,1491.0000,1081.0000,1500.0000,1998.0000
189392.1410,2.0000,1997.0000,1089.0000,1927.0000,-30.0000,-145.0000,11.0000,1600.0000,-840.0000,6377.0000,0.3988,-0.6662,0.0108,-0.6302,126.4200,4.4700,-94.5000,-8.0400,15.2100,-10.9000,0.0000,0.0000,-0.0000,1491.0000,1081.0000,1500.0000,1998.0000
189408.9200,2.0000,1997.0000,1117.0000,1955.0000,-28.0000,-158.0000,12.0000,1579.0000,-732.0000,6623.0000,0.3966,-0.6817,0.0063,-0.6148,126.2400,4.7500,-94.6700,-7.7800,15.0300,-10.8600,0.0000,0.0000,-0.0000,1462.0000,1081.0000,1500.0000,1998.0000
189425.5470,2.0000,1997.0000,1118.0000,1956.0000,-28.0000,-160.0000,14.0000,1698.0000,-609.0000,7075.0000,0.3946,-0.6975,0.0012,-0.5981,126.0500,5.0500,-94.8600,-7.2300,14.6700,-10.7900,0.0000,0.0000,-0.0000,1462.0000,1081.0000,1500.0000,1998.0000
189442.6220,2.0000,1997.0000,1118.0000,1956.0000,-28.0000,-159.0000,16.0000,2170.0000,-467.0000,7600.0000,0.3926,-0.7131,-0.0037,-0.5807,126.0500,5.0500,-94.8600,-7.2300,14.6700,-10.7900,0.0000,0.0000,-0.0000,1462.0000,1081.0000,1500.0000,1998.0000
189459.3710,2.0000,1997.0000,1118.0000,1956.0000,-29.0000,-160.0000,16.0000,1976.0000,-503.0000,7791.0000,0.3906,-0.7282,-0.0085,-0.5631,125.8800,5.3400,-95.0400,-6.5800,14.2900,-10.7300,0.0000,0.0000,-0.0000,1462.0000,1081.0000,1500.0000,1998.0000
189476.4360,2.0000,1997.0000,1118.0000,1956.0000,-30.0000,-153.0000,18.0000,1631.0000,-407.0000,7579.0000,0.3881,-0.7430,-0.0128,-0.5451,125.7400,5.6100,-95.2300,-5.9600,13.9000,-10.6300,0.0000,0.0000,-0.0000,1462.0000,1081.0000,1500.0000,1998.0000
189493.6420,2.0000,1997.0000,1118.0000,1956.0000,-31.0000,-148.0000,22.0000,1833.0000,-658.0000,8119.0000,0.3852,-0.7570,-0.0160,-0.5275,125.6100,5.8500,-95.4000,-5.4100,13.5100,-10.4600,0.0000,0.0000,-0.0000,1462.0000,1081.0000,1500.0000,1998.0000
189510.3720,2.0000,1997.0000,1060.0000,1898.0000,-34.0000,-140.0000,21.0000,1683.0000,-812.0000,8271.0000,0.3824,-0.7698,-0.0186,-0.5107,125.5000,6.0700,-95.5700,-4.8900,13.1100,-10.2800,0.0000,0.0000,-0.0000,1524.0000,1081.0000,1500.0000,1998.0000
189527.2060,2.0000,1997.0000,1059.0000,1897.0000,-39.0000,-124.0000,22.0000,1421.0000,-740.0000,7956.0000,0.3791,-0.7814,-0.0202,-0.4953,125.4000,6.3100,-95.7500,-4.2500,12.6100,-10.0600,0.0000,0.0000,-0.0000,1524.0000,1081.0000,1500.0000,1998.0000
189544.0240,2.0000,1997.0000,1059.0000,1897.0000,-40.0000,-105.0000,25.0000,1371.0000,-692.0000,7402.0000,0.3755,-0.7920,-0.0206,-0.4810,125.4000,6.3100,-95.7500,-4.2500,12.6100,-10.0600,0.0000,0.0000,-0.0000,1524.0000,1081.0000,1500.0000,1998.0000
189561.0090,2.0000,1997.0000,1059.0000,1897.0000,-42.0000,-97.0000,26.0000,1397.0000,-722.0000,6889.0000,0.3719,-0.8015,-0.0200,-0.4678,125.3200,6.5400,-95.9400,-3.6900,12.1500,-9.8100,0.0000,0.0000,-0.0000,1524.0000,1081.0000,1500.0000,1998.0000
189578.0600,2.0000,1997.0000,1059.0000,1897.0000,-38.0000,-72.0000,29.0000,1489.0000,-351.0000,5915.0000,0.3686,-0.8092,-0.0177,-0.4571,125.2500,6.7400,-96.1100,-3.2100,11.7600,-9.5600,0.0000,0.0000,-0.0000,1524.0000,1081.0000,1500.0000,1998.0000
189594.9770,2.0000,1997.0000,1059.0000,1897.0000,-35.0000,-61.0000,29.0000,1587.0000,-267.0000,5427.0000,0.3658,-0.8157,-0.0147,-0.4479,125.1900,6.9300,-96.2800,-2.8500,11.4800,-9.2900,0.0000,0.0000,-0.0000,1524.0000,1081.0000,1500.0000,1998.0000
189611.7040,2.0000,1997.0000,1117.0000,1955.0000,-30.0000,-57.0000,27.0000,1662.0000,-586.0000,5233.0000,0.3633,-0.8213,-0.0117,-0.4396,125.1400,7.1100,-96.4400,-2.5500,11.2600,-9.0400,0.0000,0.0000,-0.0000,1462.0000,1081.0000,1500.0000,1998.0000
189628.8060,2.0000,1997.0000,1118.0000,1956.0000,-22.0000,-59.0000,24.0000,1599.0000,-835.0000,4929.0000,0.3612,-0.8265,-0.0091,-0.4318,125.1000,7.3000,-96.6200,-2.1600,10.9500,-8.8100,0.0000,0.0000,-0.0000,1462.0000,1081.0000,1500.0000,1998.0000
189645.8710,2.0000,1997.0000,1118.0000,1956.0000,-24.0000,-67.0000,22.0000,1169.0000,-524.0000,3728.0000,0.3596,-0.8317,-0.0077,-0.4230,125.0700,7.4800,-96.7900,-1.8500,10.6800,-8.6000,0.0000,0.0000,-0.0000,1462.0000,1081.0000,1500.0000,1998.0000
189662.9940,2.0000,1997.0000,1118.0000,1956.0000,-31.0000,-76.0000,21.0000,1571.0000,-282.0000,3352.0000,0.3572,-0.8374,-0.0061,-0.4138,125.0700,7.4800,-96.7900,-1.8500,10.6800,-8.6000,0.0000,0.0000,-0.0000,1462.0000,1081.0000,1500.0000,1998.0000
189680.2620,2.0000,1997.0000,1118.0000,1956.0000,-37.0000,-87.0000,19.0000,1480.0000,-134.0000,2948.0000,0.3535,-0.8442,-0.0047,-0.4030,125.0500,7.6500,-96.9600,-1.6200,10.5100,-8.3800,0.0000,0.0000,-0.0000,1462.0000,1081.0000,1500.0000,1998.0000
189697.0220,2.0000,1997.0000,1118.0000,1956.0000,-36.0000,-108.0000,18.0000,1463.0000,-194.0000,3029.0000,0.3495,-0.8517,-0.0044,-0.3903,125.0300,7.8000,-97.1300,-1.4300,10.3800,-8.1700,0.0000,0.0000,-0.0000,1462.0000,1081.0000,1500.0000,1998.0000
189714.1040,2.0000,1997.0000,1040.0000,1878.0000,-37.0000,-136.0000,14.0000,1456.0000,-436.0000,3518.0000,0.3454,-0.8607,-0.0061,-0.3740,125.0100,7.9500,-97.2800,-1.2600,10.2500,-7.9500,0.0000,0.0000,-0.0000,1543.0000,1081.0000,1500.0000,1998.0000
189731.0490,2.0000,1997.0000,1040.0000,1878.0000,-30.0000,-152.0000,9.0000,1701.0000,-131.0000,3676.0000,0.3416,-0.8703,-0.0104,-0.3545,125.0200,8.1000,-97.4600,-0.8200,9.8100,-7.7100,0.0000,0.0000,-0.0000,1543.0000,1081.0000,1500.0000,1998.0000
189747.8170,2.0000,1997.0000,1040.0000,1878.0000,-25.0000,-173.0000,5.0000,1657.0000,-171.0000,4208.0000,0.3383,-0.8798,-0.0162,-0.3337,125.0300,8.2400,-97.6300,-0.3600,9.3700,-7.4400,0.0000,0.0000,-0.0000,1543.0000,1081.0000,1500.0000,1998.0000
189764.7450,2.0000,1997.0000,1040.0000,1878.0000,-22.0000,-188.0000,2.0000,1660.0000,-454.0000,4945.0000,0.3350,-0.8895,-0.0240,-0.3097,125.0300,8.2400,-97.6300,-0.3600,9.3700,-7.4400,0.0000,0.0000,-0.0000,1543.0000,1081.0000,1500.0000,1998.0000
189781.7120,2.0000,1997.0000,1040.0000,1878.0000,-20.0000,-194.0000,1.0000,1846.0000,-256.0000,5336.0000,0.3312,-0.8991,-0.0319,-0.2845,125.0500,8.3800,-97.7900,0.0600,8.9100,-7.1000,0.0000,0.0000,-0.0000,1543.0000,1081.0000,1500.0000,1998.0000
189798.4920,2.0000,1997.0000,1040.0000,1878.0000,-21.0000,-197.0000,0.0000,1929.0000,-461.0000,6034.0000,0.3274,-0.9079,-0.0404,-0.2586,125.0700,8.4900,-97.9400,0.4700,8.4600,-6.7100,0.0000,0.0000,-0.0000,1543.0000,1081.0000,1500.0000,1998.0000
189815.5940,2.0000,1997.0000,1041.0000,1879.0000,-21.0000,-198.0000,-2.0000,2043.0000,-627.0000,6554.0000,0.3232,-0.9162,-0.0494,-0.2317,125.1100,8.6000,-98.0800,0.8600,7.9900,-6.2500,0.0000,0.0000,-0.0000,1542.0000,1081.0000,1500.0000,1998.0000
189832.3210,2.0000,1997.0000,1041.0000,1879.0000,-17.0000,-201.0000,-5.0000,1884.0000,-571.0000,6961.0000,0.3190,-0.9234,-0.0591,-0.2052,125.1600,8.7000,-98.2300,1.4400,7.2900,-5.7400,0.0000,0.0000,-0.0000,1542.0000,1081.0000,1500.0000,1998.0000
189848.9980,2.0000,1997.0000,1041.0000,1879.0000,-15.0000,-186.0000,-4.0000,2026.0000,-599.0000,7313.0000,0.3151,-0.9295,-0.0688,-0.1792,125.2300,8.7900,-98.3700,1.9600,6.5800,-5.1700,0.0000,0.0000,-0.0000,1542.0000,1081.0000,1500.0000,1998.0000
189865.6950,2.0000,1997.0000,1041.0000,1879.0000,-11.0000,-173.0000,-2.0000,2184.0000,-534.0000,7441.0000,0.3114,-0.9344,-0.0777,-0.1548,125.2300,8.7900,-98.3700,1.9600,6.5800,-5.1700,0.0000,0.0000,-0.0000,1542.0000,1081.0000,1500.0000,1998.0000
189882.7830,2.0000,1997.0000,1041.0000,1879.0000,-9.0000,-151.0000,1.0000,2076.0000,-667.0000,7312.0000,0.3079,-0.9383,-0.0853,-0.1322,125.3100,8.8600,-98.4900,2.4200,5.9300,-4.5700,0.0000,0.0000,-0.0000,1542.0000,1081.0000,1500.0000,1998.0000
189899.3930,2.0000,1997.0000,1041.0000,1879.0000,-3.0000,-130.0000,4.0000,1749.0000,-463.0000,6618.0000,0.3055,-0.9410,-0.0913,-0.1131,125.3900,8.9100,-98.6000,2.8100,5.3200,-3.9500,0.0000,0.0000,-0.0000,1542.0000,1081.0000,1500.0000,1998.0000
189916.2690,2.0000,1997.0000,1100.0000,1938.0000,0.0000,-114.0000,5.0000,1384.0000,-555.0000,6288.0000,0.3038,-0.9430,-0.0963,-0.0961,125.4700,8.9500,-98.7000,3.0800,4.8000,-3.3600,0.0000,0.0000,-0.0000,1480.0000,1081.0000,1500.0000,1998.0000
189933.0120,2.0000,1997.0000,1100.0000,1938.0000,2.0000,-100.0000,8.0000,1548.0000,-595.0000,5887.0000,0.3025,-0.9443,-0.1004,-0.0813,125.5500,8.9800,-98.7800,3.2800,4.3600,-2.7900,0.0000,0.0000,-0.0000,1480.0000,1081.0000,1500.0000,1998.0000
189949.7680,2.0000,1997.0000,1100.0000,1938.0000,7.0000,-84.0000,14.0000,1603.0000,-637.0000,5441.0000,0.3017,-0.9453,-0.1034,-0.0679,125.5500,8.9800,-98.7800,3.2800,4.3600,-2.7900,0.0000,0.0000,-0.0000,1480.0000,1081.0000,1500.0000,1998.0000
189967.0130,2.0000,1997.0000,1100.0000,1938.0000,3.0000,-70.0000,19.0000,1732.0000,-601.0000,5246.0000,0.3013,-0.9461,-0.1052,-0.0558,125.6400,9.0000,-98.8500,3.4300,3.9700,-2.2600,0.0000,0.0000,-0.0000,1480.0000,1081.0000,1500.0000,1998.0000
189984.1390,2.0000,1997.0000,1100.0000,1938.0000,-8.0000,-60.0000,22.0000,1421.0000,-592.0000,4521.0000,0.3000,-0.9470,-0.1055,-0.0456,125.7200,9.0100,-98.9100,3.5600,3.6400,-1.7600,0.0000,0.0000,-0.0000,1480.0000,1081.0000,1500.0000,1998.0000
190001.0940,2.0000,1997.0000,1733.0000,1123.0000,-12.0000,-62.0000,23.0000,1644.0000,-560.0000,4138.0000,0.2978,-0.9481,-0.1050,-0.0365,125.8000,9.0100,-98.9600,3.6400,3.3900,-1.3100,0.0000,0.0000,-0.0000,1584.0000,1878.0000,1500.0000,1999.0000
190018.0920,2.0000,1998.0000,1795.0000,1041.0000,-14.0000,-71.0000,25.0000,1787.0000,-766.0000,3909.0000,0.2950,-0.9494,-0.1048,-0.0262,125.8800,9.0100,-99.0000,3.7200,3.1900,-0.8900,0.0000,0.0000,-0.0000,1584.0000,1878.0000,1500.0000,1999.0000
190034.9780,2.0000,1998.0000,1795.0000,1041.0000,-20.0000,-76.0000,24.0000,1748.0000,-853.0000,3714.0000,0.2915,-0.9507,-0.1050,-0.0151,125.9600,9.0000,-99.0400,3.7800,3.0000,-0.5000,0.0000,0.0000,-0.0000,1584.0000,1878.0000,1500.0000,1999.0000
190051.9360,2.0000,1998.0000,1795.0000,1041.0000,-18.0000,-79.0000,23.0000,1605.0000,-612.0000,3570.0000,0.2877,-0.9519,-0.1054,-0.0038,126.0300,8.9800,-99.0600,3.8200,2.8500,-0.1200,0.0000,0.0000,-0.0000,1584.0000,1878.0000,1500.0000,1999.0000
190069.1380,2.0000,1998.0000,1795.0000,1041.0000,-15.0000,-72.0000,22.0000,1716.0000,-460.0000,3975.0000,0.2840,-0.9529,-0.1059,0.0082,126.0300,8.9800,-99.0600,3.8200,2.8500,-0.1200,0.0000,0.0000,-0.0000,1584.0000,1878.0000,1500.0000,1999.0000
190086.2120,2.0000,1998.0000,1795.0000,1041.0000,-10.0000,-44.0000,23.0000,2069.0000,-403.0000,4679.0000,0.2811,-0.9537,-0.1056,0.0176,126.1100,8.9700,-99.0800,3.8500,2.7300,0.2900,0.0000,0.0000,-0.0000,1584.0000,1878.0000,1500.0000,1999.0000
190103.3190,2.0000,1998.0000,1795.0000,1041.0000,6.0000,4.0000,27.0000,1945.0000,-636.0000,5484.0000,0.2804,-0.9541,-0.1031,0.0213,126.1700,8.9500,-99.0900,3.8900,2.5800,0.7900,0.0000,0.0000,-0.0000,1584.0000,1878.0000,1500.0000,1999.0000
190120.0480,2.0000,1997.0000,1689.0000,1000.0000,33.0000,73.0000,30.0000,1398.0000,-604.0000,5045.0000,0.2836,-0.9538,-0.0980,0.0176,126.2400,8.9300,-99.0800,3.8900,2.4200,1.3100,0.0000,0.0000,-0.0000,1698.0000,1886.0000,1500.0000,1998.0000
190136.7880,2.0000,1997.0000,1689.0000,1000.0000,64.0000,119.0000,33.0000,1575.0000,-520.0000,3597.0000,0.2916,-0.9523,-0.0901,0.0065,126.3000,8.9000,-99.0800,3.8500,2.3200,1.7600,0.0000,0.0000,-0.0000,1698.0000,1886.0000,1500.0000,1998.0000
190153.3800,2.0000,1997.0000,1689.0000,1000.0000,95.0000,191.0000,38.0000,1839.0000,-469.0000,1371.0000,0.3048,-0.9491,-0.0790,-0.0126,126.3500,8.8600,-99.0700,3.8500,2.3700,2.0100,0.0000,0.0000,-0.0000,1698.0000,1886.0000,1500.0000,1998.0000
190170.2570,2.0000,1997.0000,1689.0000,1000.0000,125.0000,237.0000,42.0000,1999.0000,-212.0000,-1465.0000,0.3226,-0.9435,-0.0646,-0.0395,126.3500,8.8600,-99.0700,3.8500,2.3700,2.0100,0.0000,0.0000,-0.0000,1698.0000,1886.0000,1500.0000,1998.0000
190187.2300,2.0000,1997.0000,1689.0000,1000.0000,147.0000,254.0000,43.0000,1653.0000,-138.0000,-4382.0000,0.3440,-0.9351,-0.0482,-0.0705,126.4000,8.8200,-99.0600,3.8700,2.6000,1.9300,0.0000,0.0000,-0.0000,1698.0000,1886.0000,1500.0000,1998.0000
190204.0510,2.0000,1997.0000,1689.0000,1000.0000,154.0000,246.0000,43.0000,1533.0000,63.0000,-7140.0000,0.3667,-0.9242,-0.0318,-0.1018,126.4400,8.8000,-99.0700,3.8400,3.0300,1.5200,0.0000,0.0000,-0.0000,1698.0000,1886.0000,1500.0000,1998.0000
190221.1730,2.0000,1979.0000,2000.0000,1839.0000,154.0000,195.0000,40.0000,1803.0000,143.0000,-8705.0000,0.3897,-0.9117,-0.0171,-0.1291,126.4800,8.7800,-99.1100,3.7300,3.6500,0.6600,0.0000,0.0000,-0.0000,1056.0000,1607.0000,1500.0000,1981.0000
190237.9360,2.0000,1979.0000,2000.0000,1839.0000,154.0000,147.0000,36.0000,1751.0000,33.0000,-8631.0000,0.4114,-0.8992,-0.0061,-0.1488,126.5200,8.7800,-99.2000,3.5700,4.3300,-0.2200,0.0000,0.0000,-0.0000,1056.0000,1607.0000,1500.0000,1981.0000
190254.9440,2.0000,1979.0000,2000.0000,1839.0000,150.0000,82.0000,29.0000,1647.0000,-240.0000,-7766.0000,0.4327,-0.8869,0.0009,-0.1615,126.5500,8.7900,-99.3200,3.4000,4.9200,-0.8800,0.0000,0.0000,-0.0000,1056.0000,1607.0000,1500.0000,1981.0000
190271.9620,2.0000,1979.0000,2000.0000,1839.0000,101.0000,43.0000,23.0000,1659.0000,-77.0000,-7097.0000,0.4505,-0.8769,0.0042,-0.1677,126.5500,8.7900,-99.3200,3.4000,4.9200,-0.8800,0.0000,0.0000,-0.0000,1056.0000,1607.0000,1500.0000,1981.0000
190288.7710,2.0000,1979.0000,2000.0000,1839.0000,19.0000,6.0000,17.0000,1855.0000,75.0000,-6473.0000,0.4588,-0.8724,0.0053,-0.1686,126.5800,8.8300,-99.4500,3.2500,5.3900,-1.4200,0.0000,0.0000,-0.0000,1056.0000,1607.0000,1500.0000,1981.0000
190305.7870,2.0000,1997.0000,1126.0000,1962.0000,-48.0000,-49.0000,16.0000,1887.0000,24.0000,-5865.0000,0.4575,-0.8739,0.0050,-0.1640,126.6100,8.8700,-99.6000,3.1600,5.8000,-1.8500,0.0000,0.0000,-0.0000,1455.0000,1081.0000,1500.0000,1998.0000
190322.4700,2.0000,1997.0000,1125.0000,1963.0000,-135.0000,-87.0000,15.0000,1520.0000,-460.0000,-5059.0000,0.4464,-0.8816,0.0031,-0.1534,126.6400,8.9200,-99.7400,3.1100,6.1100,-2.1300,0.0000,0.0000,-0.0000,1455.0000,1081.0000,1500.0000,1998.0000
190339.3810,2.0000,1997.0000,1125.0000,1963.0000,-202.0000,-137.0000,22.0000,1423.0000,-554.0000,-4512.0000,0.4245,-0.8950,0.0005,-0.1368,126.8600,8.9400,-99.9200,3.8900,5.3200,-2.3900,0.0000,0.0000,-0.0000,1455.0000,1081.0000,1500.0000,1998.0000
190356.3070,2.0000,1997.0000,1125.0000,1963.0000,-252.0000,-175.0000,27.0000,1427.0000,-617.0000,-3252.0000,0.3943,-0.9119,-0.0031,-0.1137,127.0800,8.9400,-100.1000,4.6200,4.5100,-2.6200,0.0000,0.0000,-0.0000,1455.0000,1081.0000,1500.0000,1998.0000
190373.3930,2.0000,1997.0000,1125.0000,1963.0000,-267.0000,-203.0000,30.0000,1353.0000,-851.0000,-1750.0000,0.3588,-0.9295,-0.0076,-0.0854,127.0800,8.9400,-100.1000,4.6200,4.5100,-2.6200,0.0000,0.0000,-0.0000,1455.0000,1081.0000,1500.0000,1998.0000
190390.3510,2.0000,1997.0000,1125.0000,1963.0000,-250.0000,-222.0000,31.0000,1572.0000,-718.0000,-514.0000,0.3229,-0.9448,-0.0127,-0.0545,127.3200,8.9200,-100.2900,5.3700,3.5300,-2.6700,0.0000,0.0000,-0.0000,1455.0000,1081.0000,1500.0000,1998.0000
190407.1820,2.0000,1997.0000,1475.0000,1000.0000,-203.0000,-247.0000,25.0000,1745.0000,-799.0000,1114.0000,0.2909,-0.9563,-0.0195,-0.0206,127.5800,8.8700,-100.4800,6.1200,2.4900,-2.5700,0.0000,0.0000,-0.0000,1984.0000,1961.0000,1500.0000,1999.0000
190423.8530,2.0000,1998.0000,1477.0000,1000.0000,-157.0000,-263.0000,15.0000,1263.0000,-544.0000,2292.0000,0.2650,-0.9637,-0.0285,0.0161,127.8300,8.8100,-100.6500,6.8100,1.4500,-2.2300,0.0000,0.0000,-0.0000,1984.0000,1961.0000,1500.0000,1999.0000
190440.6700,2.0000,1998.0000,1477.0000,1000.0000,-128.0000,-260.0000,7.0000,1372.0000,-386.0000,4231.0000,0.2435,-0.9676,-0.0391,0.0536,128.1500,8.7000,-100.8100,7.5100,0.5600,-1.6600,0.0000,0.0000,-0.0000,1984.0000,1961.0000,1500.0000,1999.0000
190457.6020,2.0000,1998.0000,1477.0000,1000.0000,-101.0000,-246.0000,3.0000,1652.0000,-617.0000,6317.0000,0.2255,-0.9688,-0.0500,0.0895,128.4700,8.5800,-100.9300,8.0900,-0.3200,-0.8400,0.0000,0.0000,-0.0000,1984.0000,1961.0000,1500.0000,1999.0000
190474.5280,2.0000,1998.0000,1477.0000,1000.0000,-72.0000,-217.0000,2.0000,2064.0000,-899.0000,7952.0000,0.2109,-0.9680,-0.0596,0.1222,128.4700,8.5800,-100.9300,8.0900,-0.3200,-0.8400,0.0000,0.0000,-0.0000,1984.0000,1961.0000,1500.0000,1999.0000
190491.2750,2.0000,1998.0000,1477.0000,1000.0000,-21.0000,-168.0000,2.0000,2425.0000,-864.0000,8802.0000,0.2023,-0.9656,-0.0667,0.1493,128.7800,8.4600,-101.0100,8.5000,-1.1800,0.1100,0.0000,0.0000,-0.0000,1984.0000,1961.0000,1500.0000,1999.0000
190508.3550,2.0000,1998.0000,1518.0000,1000.0000,52.0000,-113.0000,7.0000,2335.0000,-1078.0000,9315.0000,0.2026,-0.9618,-0.0707,0.1702,129.0600,8.3300,-101.0600,8.7900,-1.9500,1.1600,0.0000,0.0000,-0.0000,1880.0000,1898.0000,1500.0000,1999.0000
190525.1990,2.0000,1998.0000,1518.0000,1000.0000,127.0000,-45.0000,15.0000,1897.0000,-966.0000,8871.0000,0.2142,-0.9571,-0.0697,0.1825,129.3300,8.2000,-101.0700,8.9600,-2.6300,2.2000,0.0000,0.0000,-0.0000,1880.0000,1898.0000,1500.0000,1999.0000
190542.2070,2.0000,1998.0000,1518.0000,1000.0000,192.0000,17.0000,23.0000,1548.0000,-895.0000,7710.0000,0.2362,-0.9516,-0.0633,0.1863,129.6300,8.0700,-101.0600,9.1600,-3.1500,3.1400,0.0000,0.0000,-0.0000,1880.0000,1898.0000,1500.0000,1999.0000
190559.4720,2.0000,1998.0000,1518.0000,1000.0000,242.0000,66.0000,34.0000,1473.0000,-852.0000,5963.0000,0.2668,-0.9447,-0.0519,0.1833,129.9200,7.9300,-101.0300,9.3500,-3.5700,3.9000,0.0000,0.0000,-0.0000,1880.0000,1898.0000,1500.0000,1999.0000
190576.5120,2.0000,1998.0000,1518.0000,1000.0000,279.0000,112.0000,42.0000,1312.0000,-575.0000,3498.0000,0.3029,-0.9362,-0.0363,0.1744,129.9200,7.9300,-101.0300,9.3500,-3.5700,3.9000,0.0000,0.0000,-0.0000,1880.0000,1898.0000,1500.0000,1999.0000
190593.2500,2.0000,1998.0000,1518.0000,1000.0000,315.0000,163.0000,48.0000,1591.0000,-450.0000,1324.0000,0.3426,-0.9259,-0.0166,0.1585,130.2100,7.7800,-100.9900,9.6300,-3.8600,4.4200,0.0000,0.0000,-0.0000,1880.0000,1898.0000,1500.0000,1999.0000
190610.2240,2.0000,1992.0000,2000.0000,1250.0000,336.0000,202.0000,50.0000,1670.0000,-223.0000,-1182.0000,0.3860,-0.9123,0.0067,0.1364,130.5100,7.6300,-100.9500,10.0100,-3.9600,4.7100,0.0000,0.0000,-0.0000,1292.0000,1958.0000,1500.0000,1993.0000
190627.0070,2.0000,1992.0000,2000.0000,1250.0000,328.0000,225.0000,51.0000,1381.0000,72.0000,-4032.0000,0.4286,-0.8961,0.0315,0.1106,130.8100,7.4900,-100.9000,10.4400,-3.8300,4.7800,0.0000,0.0000,-0.0000,1292.0000,1958.0000,1500.0000,1993.0000
190643.5250,2.0000,1992.0000,2000.0000,1250.0000,272.0000,221.0000,52.0000,1490.0000,210.0000,-6431.0000,0.4650,-0.8796,0.0564,0.0835,131.1600,7.3600,-100.8600,10.8600,-3.4000,4.4800,0.0000,0.0000,-0.0000,1292.0000,1958.0000,1500.0000,1993.0000
190660.2750,2.0000,1992.0000,2000.0000,1250.0000,189.0000,198.0000,52.0000,1340.0000,263.0000,-7810.0000,0.4920,-0.8650,0.0795,0.0585,131.4900,7.2400,-100.8500,11.1900,-2.7800,4.0100,0.0000,0.0000,-0.0000,1292.0000,1958.0000,1500.0000,1993.0000
190677.3230,2.0000,1992.0000,2000.0000,1250.0000,106.0000,155.0000,51.0000,1304.0000,-1.0000,-7946.0000,0.5079,-0.8548,0.0994,0.0383,131.4900,7.2400,-100.8500,11.1900,-2.7800,4.0100,0.0000,0.0000,-0.0000,1292.0000,1958.0000,1500.0000,1993.0000
190693.8240,2.0000,1992.0000,2000.0000,1250.0000,46.0000,116.0000,48.0000,1276.0000,-327.0000,-7193.0000,0.5147,-0.8493,0.1149,0.0247,131.8100,7.1500,-100.8600,11.3900,-2.1400,3.4400,0.0000,0.0000,-0.0000,1292.0000,1958.0000,1500.0000,1993.0000
190710.7120,2.0000,1998.0000,1528.0000,1000.0000,6.0000,89.0000,43.0000,981.0000,-258.0000,-6810.0000,0.5156,-0.8471,0.1275,0.0155,132.1000,7.0800,-100.8800,11.5200,-1.6100,3.0100,0.0000,0.0000,-0.0000,1872.0000,1899.0000,1500.0000,1999.0000
190727.3490,2.0000,1998.0000,1527.0000,1000.0000,-20.0000,38.0000,39.0000,949.0000,-538.0000,-6390.0000,0.5134,-0.8472,0.1360,0.0118,132.3900,7.0200,-100.9200,11.5600,-1.1600,2.6800,0.0000,0.0000,-0.0000,1872.0000,1899.0000,1500.0000,1999.0000
190744.0200,2.0000,1998.0000,1527.0000,1000.0000,-14.0000,8.0000,34.0000,977.0000,-649.0000,-5665.0000,0.5103,-0.8482,0.1411,0.0127,132.6900,6.9800,-100.9500,11.5800,-0.7900,2.3900,0.0000,0.0000,-0.0000,1872.0000,1899.0000,1500.0000,1999.0000
190761.1350,2.0000,1998.0000,1527.0000,1000.0000,40.0000,-7.0000,34.0000,1126.0000,-756.0000,-5011.0000,0.5121,-0.8466,0.1443,0.0155,132.9800,6.9500,-101.0000,11.6000,-0.5300,2.1500,0.0000,0.0000,-0.0000,1872.0000,1899.0000,1500.0000,1999.0000
190777.8790,2.0000,1998.0000,1527.0000,1000.0000,83.0000,-24.0000,31.0000,1011.0000,-365.0000,-5165.0000,0.5201,-0.8413,0.1459,0.0196,132.9800,6.9500,-101.0000,11.6000,-0.5300,2.1500,0.0000,0.0000,-0.0000,1872.0000,1899.0000,1500.0000,1999.0000
190794.4380,2.0000,1998.0000,1527.0000,1000.0000,122.0000,-49.0000,28.0000,1369.0000,34.0000,-4404.0000,0.5333,-0.8329,0.1462,0.0246,133.2600,6.9200,-101.0400,11.6000,-0.2800,1.9700,0.0000,0.0000,-0.0000,1872.0000,1899.0000,1500.0000,1999.0000
190811.0960,2.0000,1998.0000,1540.0000,1000.0000,159.0000,-54.0000,29.0000,1350.0000,-151.0000,-3276.0000,0.5515,-0.8209,0.1451,0.0308,133.5200,6.9100,-101.0900,11.6200,-0.0600,1.9300,0.0000,0.0000,-0.0000,1859.0000,1899.0000,1500.0000,1999.0000
190828.0200,2.0000,1998.0000,1540.0000,1000.0000,185.0000,-48.0000,32.0000,1302.0000,-498.0000,-2336.0000,0.5733,-0.8057,0.1446,0.0364,133.7700,6.8900,-101.1300,11.6900,0.0300,1.9500,0.0000,0.0000,-0.0000,1859.0000,1899.0000,1500.0000,1999.0000
190844.5690,2.0000,1998.0000,1540.0000,1000.0000,204.0000,-39.0000,39.0000,1230.0000,-468.0000,-1700.0000,0.5963,-0.7883,0.1458,0.0404,134.0600,6.8800,-101.1700,11.9100,0.0700,2.0000,0.0000,0.0000,-0.0000,1859.0000,1899.0000,1500.0000,1999.0000
190861.4040,2.0000,1998.0000,1540.0000,1000.0000,215.0000,-17.0000,48.0000,1293.0000,-457.0000,-1409.0000,0.6206,-0.7685,0.1494,0.0429,134.0600,6.8800,-101.1700,11.9100,0.0700,2.0000,0.0000,0.0000,-0.0000,1859.0000,1899.0000,1500.0000,1999.0000
190878.4980,2.0000,1998.0000,1540.0000,1000.0000,231.0000,8.0000,57.0000,1353.0000,-490.0000,-1073.0000,0.6456,-0.7463,0.1555,0.0440,134.3500,6.8700,-101.2100,12.1000,0.0500,2.1000,0.0000,0.0000,-0.0000,1859.0000,1899.0000,1500.0000,1999.0000
190895.3410,2.0000,1998.0000,1540.0000,1000.0000,242.0000,30.0000,66.0000,1097.0000,-512.0000,-1192.0000,0.6703,-0.7223,0.1648,0.0429,134.6200,6.8600,-101.2500,12.2800,0.0000,2.2500,0.0000,0.0000,-0.0000,1859.0000,1899.0000,1500.0000,1999.0000
190912.0610,2.0000,1995.0000,2000.0000,1283.0000,248.0000,48.0000,75.0000,880.0000,-640.0000,-1460.0000,0.6943,-0.6965,0.1766,0.0405,134.8900,6.8500,-101.2700,12.4100,-0.0300,2.4700,0.0000,0.0000,-0.0000,1279.0000,1938.0000,1500.0000,1996.0000
190928.7320,2.0000,1995.0000,2000.0000,1283.0000,244.0000,72.0000,84.0000,964.0000,-400.0000,-2068.0000,0.7167,-0.6695,0.1921,0.0363,135.1600,6.8400,-101.2900,12.5100,-0.0100,2.6500,0.0000,0.0000,-0.0000,1279.0000,1938.0000,1500.0000,1996.0000
190945.5120,2.0000,1995.0000,2000.0000,1283.0000,244.0000,94.0000,93.0000,1016.0000,-316.0000,-2520.0000,0.7371,-0.6413,0.2108,0.0305,135.4700,6.8400,-101.3000,12.6500,0.1600,2.8300,0.0000,0.0000,-0.0000,1279.0000,1938.0000,1500.0000,1996.0000
190962.1810,2.0000,1995.0000,2000.0000,1283.0000,214.0000,117.0000,98.0000,1080.0000,-98.0000,-2994.0000,0.7546,-0.6136,0.2313,0.0244,135.4700,6.8400,-101.3000,12.6500,0.1600,2.8300,0.0000,0.0000,-0.0000,1279.0000,1938.0000,1500.0000,1996.0000
190979.0800,2.0000,1995.0000,2000.0000,1283.0000,151.0000,137.0000,101.0000,1368.0000,-31.0000,-3401.0000,0.7660,-0.5900,0.2547,0.0182,135.7700,6.8400,-101.3000,12.7400,0.3700,3.0500,0.0000,0.0000,-0.0000,1279.0000,1938.0000,1500.0000,1996.0000
190995.8370,2.0000,1995.0000,2000.0000,1283.0000,64.0000,157.0000,105.0000,1257.0000,-50.0000,-4237.0000,0.7691,-0.5746,0.2795,0.0141,136.0500,6.8400,-101.3000,12.7900,0.6100,3.3200,0.0000,0.0000,-0.0000,1279.0000,1938.0000,1500.0000,1996.0000
191012.8390,2.0000,1996.0000,1023.0000,1859.0000,-4.0000,156.0000,103.0000,1078.0000,22.0000,-5336.0000,0.7645,-0.5675,0.3056,0.0124,136.3200,6.8500,-101.3000,12.7600,0.9000,3.5300,0.0000,0.0000,-0.0000,1562.0000,1081.0000,1500.0000,1998.0000
191029.6260,2.0000,1997.0000,1021.0000,1859.0000,-46.0000,143.0000,97.0000,824.0000,108.0000,-6256.0000,0.7551,-0.5663,0.3300,0.0131,136.5900,6.8700,-101.2900,12.6300,1.2900,3.7400,0.0000,0.0000,-0.0000,1562.0000,1081.0000,1500.0000,1998.0000
191046.5560,2.0000,1997.0000,1021.0000,1859.0000,-82.0000,121.0000,86.0000,944.0000,291.0000,-6704.0000,0.7429,-0.5696,0.3513,0.0167,136.8800,6.8900,-101.2800,12.4600,1.7500,3.9400,0.0000,0.0000,-0.0000,1562.0000,1081.0000,1500.0000,1998.0000
191063.4940,2.0000,1997.0000,1021.0000,1859.0000,-103.0000,83.0000,74.0000,1276.0000,587.0000,-7184.0000,0.7292,-0.5765,0.3679,0.0230,136.8800,6.8900,-101.2800,12.4600,1.7500,3.9400,0.0000,0.0000,-0.0000,1562.0000,1081.0000,1500.0000,1998.0000
191080.8160,2.0000,1997.0000,1021.0000,1859.0000,-132.0000,13.0000,60.0000,1351.0000,675.0000,-7770.0000,0.7157,-0.5865,0.3776,0.0338,137.1600,6.9300,-101.2700,12.2600,2.2300,4.2500,0.0000,0.0000,-0.0000,1562.0000,1081.0000,1500.0000,1998.0000
191097.5020,2.0000,1997.0000,1005.0000,1843.0000,-152.0000,-65.0000,47.0000,1079.0000,707.0000,-7770.0000,0.7044,-0.5987,0.3779,0.0504,137.4200,6.9800,-101.2400,12.0300,2.7300,4.5600,0.0000,0.0000,-0.0000,1580.0000,1081.0000,1500.0000,1998.0000
191114.5260,2.0000,1997.0000,1003.0000,1841.0000,-158.0000,-131.0000,31.0000,915.0000,390.0000,-6542.0000,0.6954,-0.6124,0.3690,0.0730,137.6700,7.0300,-101.2100,11.7900,3.2200,4.8600,0.0000,0.0000,-0.0000,1580.0000,1081.0000,1500.0000,1998.0000
191131.5580,2.0000,1997.0000,1003.0000,1841.0000,-137.0000,-205.0000,13.0000,862.0000,283.0000,-4098.0000,0.6907,-0.6246,0.3506,0.0998,137.9200,7.1000,-101.1600,11.7000,3.6000,5.1500,0.0000,0.0000,-0.0000,1580.0000,1081.0000,1500.0000,1998.0000
191148.6050,2.0000,1997.0000,1003.0000,1841.0000,-103.0000,-263.0000,-10.0000,855.0000,385.0000,-733.0000,0.6910,-0.6332,0.3242,0.1283,138.2000,7.1800,-101.1100,11.8100,3.7400,5.4900,0.0000,0.0000,-0.0000,1580.0000,1081.0000,1500.0000,1998.0000
191165.5330,2.0000,1997.0000,1003.0000,1841.0000,-75.0000,-289.0000,-37.0000,927.0000,522.0000,3067.0000,0.6959,-0.6375,0.2912,0.1564,138.2000,7.1800,-101.1100,11.8100,3.7400,5.4900,0.0000,0.0000,-0.0000,1580.0000,1081.0000,1500.0000,1998.0000
191182.6090,2.0000,1997.0000,1003.0000,1841.0000,-58.0000,-301.0000,-58.0000,1180.0000,355.0000,6427.0000,0.7029,-0.6390,0.2536,0.1826,138.4800,7.2600,-101.0300,12.0700,3.4400,6.0100,0.0000,0.0000,-0.0000,1580.0000,1081.0000,1500.0000,1998.0000
191199.5600,2.0000,1997.0000,1003.0000,1841.0000,-46.0000,-300.0000,-72.0000,1641.0000,-150.0000,9653.0000,0.7104,-0.6379,0.2142,0.2063,138.7500,7.3200,-100.9400,12.3600,2.7600,6.5800,0.0000,0.0000,-0.0000,1580.0000,1081.0000,1500.0000,1998.0000
191216.2640,2.0000,1997.0000,1477.0000,1000.0000,-28.0000,-273.0000,-78.0000,1839.0000,-573.0000,12003.0000,0.7176,-0.6347,0.1761,0.2263,139.0000,7.3600,-100.8100,12.6400,1.8000,7.0800,0.0000,0.0000,-0.0000,1879.0000,1859.0000,1500.0000,1999.0000
191233.2010,2.0000,1998.0000,1480.0000,1000.0000,-12.0000,-239.0000,-80.0000,2032.0000,-912.0000,13884.0000,0.7247,-0.6297,0.1410,0.2418,139.2800,7.4000,-100.6500,12.8700,0.8300,7.4900,0.0000,0.0000,-0.0000,1879.0000,1859.0000,1500.0000,1999.0000
191250.0090,2.0000,1998.0000,1480.0000,1000.0000,-6.0000,-181.0000,-75.0000,1932.0000,-1159.0000,14447.0000,0.7310,-0.6241,0.1116,0.2523,139.5900,7.4500,-100.4400,13.0300,0.0100,7.7500,0.0000,0.0000,-0.0000,1879.0000,1859.0000,1500.0000,1999.0000
191267.0620,2.0000,1998.0000,1480.0000,1000.0000,12.0000,-120.0000,-65.0000,1719.0000,-1249.0000,13883.0000,0.7366,-0.6188,0.0894,0.2578,139.5900,7.4500,-100.4400,13.0300,0.0100,7.7500,0.0000,0.0000,-0.0000,1879.0000,1859.0000,1500.0000,1999.0000
191284.0310,2.0000,1998.0000,1480.0000,1000.0000,50.0000,-55.0000,-49.0000,1530.0000,-1566.0000,13070.0000,0.7428,-0.6129,0.0764,0.2585,139.8900,7.4700,-100.2200,13.0800,-0.7000,7.8500,0.0000,0.0000,-0.0000,1879.0000,1859.0000,1500.0000,1999.0000
191300.8930,2.0000,1998.0000,1480.0000,1000.0000,107.0000,29.0000,-35.0000,1443.0000,-1684.0000,11875.0000,0.7515,-0.6045,0.0750,0.2534,140.1700,7.4900,-99.9900,13.0700,-1.2900,7.8800,0.0000,0.0000,-0.0000,1879.0000,1859.0000,1500.0000,1999.0000
191317.7350,2.0000,1998.0000,1511.0000,1000.0000,187.0000,101.0000,-13.0000,1434.0000,-1779.0000,10067.0000,0.7647,-0.5908,0.0861,0.2426,140.4600,7.5000,-99.7600,13.1400,-1.6500,7.8600,0.0000,0.0000,-0.0000,1886.0000,1897.0000,1500.0000,1999.0000
191334.6600,2.0000,1998.0000,1511.0000,1000.0000,263.0000,185.0000,12.0000,1077.0000,-1875.0000,7501.0000,0.7822,-0.5697,0.1104,0.2268,140.7900,7.5400,-99.5200,13.3900,-1.6000,7.8500,0.0000,0.0000,-0.0000,1886.0000,1897.0000,1500.0000,1999.0000
191351.5910,2.0000,1998.0000,1511.0000,1000.0000,329.0000,230.0000,33.0000,1185.0000,-1665.0000,4206.0000,0.8018,-0.5414,0.1466,0.2063,141.1000,7.5800,-99.2600,13.6700,-1.1900,7.8800,0.0000,0.0000,-0.0000,1886.0000,1897.0000,1500.0000,1999.0000
191368.3310,2.0000,1998.0000,1511.0000,1000.0000,379.0000,275.0000,54.0000,1097.0000,-1475.0000,985.0000,0.8218,-0.5049,0.1905,0.1829,141.1000,7.5800,-99.2600,13.6700,-1.1900,7.8800,0.0000,0.0000,-0.0000,1886.0000,1897.0000,1500.0000,1999.0000
191385.2530,2.0000,1998.0000,1511.0000,1000.0000,389.0000,316.0000,77.0000,980.0000,-1182.0000,-2451.0000,0.8385,-0.4626,0.2413,0.1572,141.4100,7.6300,-99.0000,13.9500,-0.4600,8.0300,0.0000,0.0000,-0.0000,1886.0000,1897.0000,1500.0000,1999.0000
191402.1390,2.0000,1974.0000,1502.0000,1860.0000,376.0000,326.0000,95.0000,716.0000,-1083.0000,-6256.0000,0.8488,-0.4181,0.2954,0.1318,141.7000,7.6900,-98.7400,14.0900,0.4800,8.3000,0.0000,0.0000,-0.0000,1068.0000,1066.0000,1500.0000,1967.0000
191418.9590,2.0000,1964.0000,1498.0000,2000.0000,345.0000,307.0000,113.0000,965.0000,-934.0000,-9600.0000,0.8527,-0.3741,0.3478,0.1095,142.0100,7.7900,-98.4800,14.0500,1.5500,8.6400,0.0000,0.0000,-0.0000,1068.0000,1066.0000,1500.0000,1967.0000
191435.5970,2.0000,1964.0000,1498.0000,2000.0000,320.0000,247.0000,119.0000,1229.0000,-351.0000,-11716.0000,0.8529,-0.3308,0.3932,0.0922,142.3500,7.9100,-98.2400,13.7600,2.5800,8.9300,0.0000,0.0000,-0.0000,1068.0000,1066.0000,1500.0000,1967.0000
191452.5580,2.0000,1964.0000,1498.0000,2000.0000,271.0000,165.0000,118.0000,1224.0000,1.0000,-12243.0000,0.8522,-0.2892,0.4285,0.0804,142.6600,8.0400,-98.0200,13.2700,3.4700,9.5000,0.0000,0.0000,-0.0000,1068.0000,1066.0000,1500.0000,1967.0000
191469.7020,2.0000,1964.0000,1498.0000,2000.0000,212.0000,61.0000,115.0000,1082.0000,85.0000,-11829.0000,0.8534,-0.2521,0.4499,0.0757,142.6600,8.0400,-98.0200,13.2700,3.4700,9.5000,0.0000,0.0000,-0.0000,1068.0000,1066.0000,1500.0000,1967.0000
191486.3070,2.0000,1964.0000,1498.0000,2000.0000,136.0000,-38.0000,111.0000,879.0000,115.0000,-10318.0000,0.8578,-0.2232,0.4563,0.0780,142.9400,8.1800,-97.8000,12.7000,4.1500,10.1500,0.0000,0.0000,-0.0000,1068.0000,1066.0000,1500.0000,1967.0000
191503.3110,2.0000,1996.0000,1136.0000,1974.0000,63.0000,-114.0000,108.0000,990.0000,46.0000,-7910.0000,0.8649,-0.2022,0.4509,0.0878,143.1900,8.3200,-97.5900,12.2200,4.6000,10.6900,0.0000,0.0000,-0.0000,1452.0000,1081.0000,1500.0000,1998.0000
191520.3240,2.0000,1997.0000,1128.0000,1966.0000,-18.0000,-196.0000,109.0000,872.0000,-79.0000,-4653.0000,0.8746,-0.1900,0.4337,0.1048,143.4700,8.4500,-97.3800,12.0200,4.6100,11.1700,0.0000,0.0000,-0.0000,1452.0000,1081.0000,1500.0000,1998.0000
191536.8350,2.0000,1997.0000,1128.0000,1966.0000,-79.0000,-238.0000,109.0000,768.0000,-106.0000,-1406.0000,0.8846,-0.1861,0.4083,0.1272,143.7700,8.5800,-97.1600,12.1500,4.2500,11.4900,0.0000,0.0000,-0.0000,1452.0000,1081.0000,1500.0000,1998.0000
191553.8990,2.0000,1997.0000,1128.0000,1966.0000,-97.0000,-278.0000,103.0000,616.0000,-171.0000,1781.0000,0.8951,-0.1862,0.3750,0.1532,144.0600,8.6900,-96.9300,12.4900,3.7900,11.8700,0.0000,0.0000,-0.0000,1452.0000,1081.0000,1500.0000,1998.0000
191570.7140,2.0000,1997.0000,1128.0000,1966.0000,-92.0000,-304.0000,87.0000,625.0000,-34.0000,5409.0000,0.9057,-0.1862,0.3368,0.1779,144.0600,8.6900,-96.9300,12.4900,3.7900,11.8700,0.0000,0.0000,-0.0000,1452.0000,1081.0000,1500.0000,1998.0000
191587.6170,2.0000,1997.0000,1128.0000,1966.0000,-90.0000,-304.0000,63.0000,1087.0000,216.0000,9142.0000,0.9153,-0.1860,0.2958,0.2002,144.3300,8.7800,-96.7000,12.9700,3.2100,12.0300,0.0000,0.0000,-0.0000,1452.0000,1081.0000,1500.0000,1998.0000
191604.1520,2.0000,1997.0000,1128.0000,1966.0000,-92.0000,-293.0000,40.0000,1725.0000,397.0000,12175.0000,0.9235,-0.1869,0.2541,0.2182,144.6000,8.8500,-96.4400,13.5600,2.4800,11.9700,0.0000,0.0000,-0.0000,1452.0000,1081.0000,1500.0000,1998.0000
191621.2250,2.0000,1997.0000,1013.0000,1851.0000,-95.0000,-254.0000,22.0000,2165.0000,92.0000,14576.0000,0.9296,-0.1895,0.2138,0.2329,144.9200,8.8900,-96.1600,14.1700,1.4400,11.5900,0.0000,0.0000,-0.0000,1571.0000,1081.0000,1500.0000,1998.0000
191638.1070,2.0000,1997.0000,1012.0000,1850.0000,-96.0000,-200.0000,11.0000,1940.0000,-207.0000,15975.0000,0.9331,-0.1941,0.1800,0.2436,145.2700,8.9000,-95.8800,14.7000,0.2900,10.9000,0.0000,0.0000,-0.0000,1571.0000,1081.0000,1500.0000,1998.0000
191654.6440,2.0000,1997.0000,1012.0000,1850.0000,-81.0000,-133.0000,1.0000,1576.0000,-203.0000,15301.0000,0.9345,-0.1999,0.1545,0.2507,145.5900,8.8900,-95.6100,15.0400,-0.7000,10.0100,0.0000,0.0000,-0.0000,1571.0000,1081.0000,1500.0000,1998.0000
191671.8440,2.0000,1997.0000,1012.0000,1850.0000,-63.0000,-88.0000,-6.0000,1303.0000,-289.0000,13883.0000,0.9352,-0.2051,0.1364,0.2545,145.5900,8.8900,-95.6100,15.0400,-0.7000,10.0100,0.0000,0.0000,-0.0000,1571.0000,1081.0000,1500.0000,1998.0000
191688.2990,2.0000,1997.0000,1012.0000,1850.0000,-57.0000,-36.0000,-10.0000,1004.0000,-258.0000,12364.0000,0.9348,-0.2116,0.1257,0.2560,145.9100,8.8500,-95.3500,15.1900,-1.5200,9.1900,0.0000,0.0000,-0.0000,1571.0000,1081.0000,1500.0000,1998.0000
191705.0440,2.0000,1997.0000,1012.0000,1850.0000,-40.0000,-3.0000,-12.0000,846.0000,-371.0000,10594.0000,0.9341,-0.2178,0.1211,0.2557,146.2000,8.8100,-95.1100,15.2200,-2.1400,8.5100,0.0000,0.0000,-0.0000,1571.0000,1081.0000,1500.0000,1998.0000
191722.1320,2.0000,1997.0000,1013.0000,1851.0000,-20.0000,30.0000,-11.0000,551.0000,-352.0000,8773.0000,0.9334,-0.2225,0.1219,0.2538,146.5200,8.7500,-94.8700,15.2100,-2.6400,7.9300,0.0000,0.0000,-0.0000,1570.0000,1081.0000,1500.0000,1998.0000
191739.1620,2.0000,1997.0000,1013.0000,1851.0000,3.0000,41.0000,-14.0000,649.0000,-288.0000,7085.0000,0.9328,-0.2253,0.1267,0.2509,146.8600,8.6700,-94.6400,15.1800,-3.0100,7.5200,0.0000,0.0000,-0.0000,1570.0000,1081.0000,1500.0000,1998.0000
191755.8560,2.0000,1997.0000,1013.0000,1851.0000,18.0000,47.0000,-21.0000,569.0000,-254.0000,5393.0000,0.9331,-0.2254,0.1331,0.2467,147.1700,8.5900,-94.4300,15.1400,-3.2700,7.2600,0.0000,0.0000,-0.0000,1570.0000,1081.0000,1500.0000,1998.0000
191772.5670,2.0000,1997.0000,1013.0000,1851.0000,26.0000,29.0000,-25.0000,321.0000,-364.0000,3662.0000,0.9339,-0.2241,0.1385,0.2417,147.1700,8.5900,-94.4300,15.1400,-3.2700,7.2600,0.0000,0.0000,-0.0000,1570.0000,1081.0000,1500.0000,1998.0000
191789.4330,2.0000,1997.0000,1013.0000,1851.0000,24.0000,-10.0000,-32.0000,313.0000,-298.0000,2462.0000,0.9353,-0.2220,0.1412,0.2367,147.4700,8.5200,-94.2200,15.0500,-3.3800,7.1700,0.0000,0.0000,-0.0000,1570.0000,1081.0000,1500.0000,1998.0000
191806.2940,2.0000,1997.0000,1013.0000,1851.0000,19.0000,-55.0000,-36.0000,149.0000,-219.0000,1882.0000,0.9382,-0.2176,0.1358,0.2326,147.7500,8.4500,-94.0200,14.9400,-3.4000,7.2100,0.0000,0.0000,-0.0000,1570.0000,1081.0000,1500.0000,1998.0000
191822.8490,2.0000,1997.0000,1112.0000,1950.0000,17.0000,-98.0000,-40.0000,243.0000,-152.0000,2581.0000,0.9417,-0.2128,0.1241,0.2294,148.0400,8.3700,-93.8200,14.7800,-3.4300,7.3400,0.0000,0.0000,-0.0000,1467.0000,1081.0000,1500.0000,1998.0000
191839.8500,2.0000,1997.0000,1113.0000,1951.0000,19.0000,-143.0000,-44.0000,305.0000,-387.0000,4062.0000,0.9457,-0.2068,0.1070,0.2268,148.3500,8.2900,-93.6100,14.6400,-3.5200,7.3900,0.0000,0.0000,-0.0000,1467.0000,1081.0000,1500.0000,1998.0000
191856.6010,2.0000,1997.0000,1113.0000,1951.0000,16.0000,-171.0000,-43.0000,419.0000,-468.0000,5720.0000,0.9500,-0.1995,0.0841,0.2250,148.6400,8.2100,-93.4100,14.5300,-3.6500,7.2600,0.0000,0.0000,-0.0000,1467.0000,1081.0000,1500.0000,1998.0000
191873.6520,2.0000,1997.0000,1113.0000,1951.0000,7.0000,-194.0000,-37.0000,759.0000,-559.0000,7590.0000,0.9536,-0.1924,0.0572,0.2244,148.6400,8.2100,-93.4100,14.5300,-3.6500,7.2600,0.0000,0.0000,-0.0000,1467.0000,1081.0000,1500.0000,1998.0000
191890.3880,2.0000,1997.0000,1113.0000,1951.0000,-1.0000,-202.0000,-29.0000,1192.0000,-907.0000,9623.0000,0.9560,-0.1857,0.0286,0.2252,148.9100,8.1300,-93.2100,14.4300,-3.8400,6.9700,0.0000,0.0000,-0.0000,1467.0000,1081.0000,1500.0000,1998.0000
191907.1900,2.0000,1997.0000,1074.0000,1912.0000,-4.0000,-194.0000,-18.0000,1460.0000,-1164.0000,11247.0000,0.9573,-0.1793,0.0001,0.2269,149.1700,8.0500,-93.0300,14.3300,-4.0600,6.4300,0.0000,0.0000,-0.0000,1510.0000,1081.0000,1500.0000,1998.0000
191924.0450,2.0000,1997.0000,1073.0000,1911.0000,-8.0000,-186.0000,-10.0000,1590.0000,-1138.0000,11991.0000,0.9572,-0.1739,-0.0271,0.2297,149.4500,7.9600,-92.8500,14.3200,-4.3700,5.6900,0.0000,0.0000,-0.0000,1510.0000,1081.0000,1500.0000,1998.0000
191941.1030,2.0000,1997.0000,1073.0000,1911.0000,-13.0000,-168.0000,-3.0000,1625.0000,-1158.0000,12742.0000,0.9562,-0.1693,-0.0528,0.2330,149.7500,7.8500,-92.6800,14.3000,-4.6900,4.8300,0.0000,0.0000,-0.0000,1510.0000,1081.0000,1500.0000,1998.0000
191958.1660,2.0000,1997.0000,1073.0000,1911.0000,-18.0000,-139.0000,2.0000,1554.0000,-1032.0000,12855.0000,0.9544,-0.1663,-0.0753,0.2363,150.0300,7.7400,-92.5500,14.2000,-4.9900,3.9100,0.0000,0.0000,-0.0000,1510.0000,1081.0000,1500.0000,1998.0000
191975.1390,2.0000,1997.0000,1073.0000,1911.0000,-25.0000,-108.0000,6.0000,1413.0000,-1023.0000,12599.0000,0.9522,-0.1653,-0.0937,0.2392,150.0300,7.7400,-92.5500,14.2000,-4.9900,3.9100,0.0000,0.0000,-0.0000,1510.0000,1081.0000,1500.0000,1998.0000
191991.9440,2.0000,1997.0000,1073.0000,1911.0000,-28.0000,-78.0000,11.0000,1320.0000,-1164.0000,11931.0000,0.9499,-0.1659,-0.1074,0.2420,150.3000,7.6400,-92.4300,14.0300,-5.2300,2.9600,0.0000,0.0000,-0.0000,1510.0000,1081.0000,1500.0000,1998.0000
192008.6530,2.0000,1997.0000,1073.0000,1911.0000,-25.0000,-47.0000,14.0000,1343.0000,-1162.0000,10824.0000,0.9479,-0.1677,-0.1165,0.2447,150.5600,7.5300,-92.3400,13.8200,-5.4200,2.0800,0.0000,0.0000,-0.0000,1510.0000,1081.0000,1500.0000,1998.0000
192025.6920,2.0000,1998.0000,1764.0000,1074.0000,-30.0000,-36.0000,16.0000,1199.0000,-1017.0000,9727.0000,0.9459,-0.1700,-0.1233,0.2474,150.8400,7.4000,-92.2500,13.7200,-5.6500,1.3200,0.0000,0.0000,-0.0000,1583.0000,1846.0000,1500.0000,1999.0000
