t_ms,msp,motor,servo0,servo1,gyro_p,gyro_q,gyro_r,acc_x,acc_y,acc_z,qw,qx,qy,qz,pos_n,pos_e,pos_d,vel_n,vel_e,vel_d,tgtpos_n,tgtpos_e,tgtpos_d,rcData0,rcData1,rcData2,rcData3
149338.9020,3.0000,1434.0000,1475.0000,1511.0000,15.0000,-9.0000,4.0000,164.0000,-380.0000,2385.0000,0.0067,-0.0630,0.0779,0.9949,138.0800,-42.1000,-98.8300,-18.3400,2.7100,3.2300,0.0000,0.0000,-0.0000,1500.0000,1500.0000,1500.0000,1466.0000
149355.6530,3.0000,1434.0000,1475.0000,1509.0000,12.0000,-11.0000,7.0000,134.0000,-337.0000,2410.0000,0.0060,-0.0614,0.0799,0.9949,137.7900,-42.0500,-98.7600,-18.2800,2.6700,3.2100,0.0000,0.0000,-0.0000,1500.0000,1498.0000,1500.0000,1465.0000
149372.2980,3.0000,1434.0000,1473.0000,1507.0000,8.0000,-10.0000,9.0000,110.0000,-277.0000,2537.0000,0.0050,-0.0600,0.0811,0.9949,137.5100,-42.0000,-98.6900,-18.2200,2.6400,3.1800,0.0000,0.0000,-0.0000,1500.0000,1500.0000,1500.0000,1466.0000
149388.9070,3.0000,1434.0000,1471.0000,1505.0000,4.0000,-11.0000,11.0000,173.0000,-292.0000,2687.0000,0.0038,-0.0589,0.0815,0.9949,137.5100,-42.0000,-98.6900,-18.2200,2.6400,3.1800,0.0000,0.0000,-0.0000,1500.0000,1500.0000,1500.0000,1465.0000
149405.4980,3.0000,1434.0000,1473.0000,1503.0000,3.0000,-13.0000,11.0000,167.0000,-297.0000,2745.0000,0.0024,-0.0573,0.0816,0.9950,137.2300,-41.9600,-98.6300,-18.1600,2.6100,3.1400,0.0000,0.0000,-0.0000,1500.0000,1500.0000,1500.0000,1466.0000
149422.3280,3.0000,1434.0000,1473.0000,1503.0000,3.0000,-14.0000,11.0000,216.0000,-316.0000,2883.0000,0.0010,-0.0552,0.0813,0.9952,136.9700,-41.9200,-98.5600,-18.1000,2.5800,3.0900,0.0000,0.0000,-0.0000,1500.0000,1500.0000,1500.0000,1465.0000
149439.1120,3.0000,1434.0000,1475.0000,1505.0000,7.0000,-14.0000,9.0000,235.0000,-218.0000,2841.0000,-0.0003,-0.0531,0.0812,0.9953,136.7100,-41.8800,-98.5000,-18.0400,2.5400,3.0200,0.0000,0.0000,-0.0000,1500.0000,1500.0000,1500.0000,1465.0000
149455.8710,3.0000,1433.0000,1476.0000,1504.0000,6.0000,-15.0000,6.0000,229.0000,-151.0000,2792.0000,-0.0013,-0.0509,0.0814,0.9954,136.4600,-41.8400,-98.4400,-17.9700,2.5100,2.9600,0.0000,0.0000,-0.0000,1500.0000,1500.0000,1500.0000,1464.0000
149472.5200,3.0000,1434.0000,1475.0000,1501.0000,2.0000,-16.0000,4.0000,159.0000,-148.0000,2745.0000,-0.0017,-0.0486,0.0812,0.9955,136.2100,-41.8000,-98.3700,-17.9000,2.5000,2.9100,0.0000,0.0000,-0.0000,1500.0000,1500.0000,1500.0000,1465.0000
149489.3340,3.0000,1434.0000,1474.0000,1500.0000,1.0000,-15.0000,1.0000,178.0000,-126.0000,2743.0000,-0.0018,-0.0467,0.0806,0.9956,136.2100,-41.8000,-98.3700,-17.9000,2.5000,2.9100,0.0000,0.0000,-0.0000,1500.0000,1500.0000,1500.0000,1465.0000
149505.9820,3.0000,1435.0000,1474.0000,1498.0000,-2.0000,-16.0000,-3.0000,142.0000,-48.0000,2769.0000,-0.0015,-0.0446,0.0800,0.9958,135.9800,-41.7600,-98.3100,-17.8200,2.4800,2.8500,0.0000,0.0000,-0.0000,1500.0000,1498.0000,1500.0000,1466.0000
149522.7800,3.0000,1434.0000,1472.0000,1496.0000,-5.0000,-16.0000,-7.0000,83.0000,-15.0000,2769.0000,-0.0005,-0.0424,0.0790,0.9960,135.7500,-41.7300,-98.2600,-17.7300,2.4700,2.7900,0.0000,0.0000,-0.0000,1500.0000,1500.0000,1500.0000,1465.0000
149539.3540,3.0000,1433.0000,1473.0000,1495.0000,-5.0000,-18.0000,-13.0000,56.0000,47.0000,2691.0000,0.0012,-0.0401,0.0781,0.9961,135.5300,-41.6900,-98.2000,-17.6300,2.4700,2.7200,0.0000,0.0000,-0.0000,1500.0000,1500.0000,1500.0000,1464.0000
149556.2050,3.0000,1434.0000,1474.0000,1494.0000,-5.0000,-18.0000,-18.0000,44.0000,60.0000,2721.0000,0.0037,-0.0378,0.0773,0.9963,135.3200,-41.6600,-98.1400,-17.5300,2.4700,2.6700,0.0000,0.0000,-0.0000,1500.0000,1498.0000,1500.0000,1465.0000
149572.8900,3.0000,1434.0000,1475.0000,1497.0000,-3.0000,-15.0000,-22.0000,137.0000,-4.0000,2848.0000,0.0068,-0.0358,0.0769,0.9964,135.3200,-41.6600,-98.1400,-17.5300,2.4700,2.6700,0.0000,0.0000,-0.0000,1500.0000,1498.0000,1500.0000,1466.0000
149589.5270,3.0000,1433.0000,1480.0000,1502.0000,6.0000,-15.0000,-24.0000,129.0000,-136.0000,2940.0000,0.0103,-0.0338,0.0773,0.9964,135.0100,-41.6100,-98.0800,-17.5600,2.4600,2.6000,0.0000,0.0000,-0.0000,1500.0000,1500.0000,1500.0000,1464.0000
149606.2220,3.0000,1434.0000,1481.0000,1503.0000,8.0000,-15.0000,-26.0000,168.0000,-159.0000,3107.0000,0.0142,-0.0320,0.0788,0.9963,134.5900,-41.5400,-98.0200,-17.7400,2.4200,2.5300,0.0000,0.0000,-0.0000,1500.0000,1500.0000,1500.0000,1466.0000
149622.8760,3.0000,1435.0000,1480.0000,1504.0000,8.0000,-13.0000,-29.0000,148.0000,-189.0000,3259.0000,0.0184,-0.0303,0.0802,0.9961,134.1900,-41.4800,-97.9600,-17.9000,2.3700,2.4400,0.0000,0.0000,-0.0000,1500.0000,1498.0000,1500.0000,1466.0000
149639.6430,3.0000,1433.0000,1479.0000,1503.0000,7.0000,-11.0000,-29.0000,132.0000,-121.0000,3094.0000,0.0228,-0.0286,0.0815,0.9960,133.7800,-41.4200,-97.9000,-18.0400,2.3200,2.3400,0.0000,0.0000,-0.0000,1500.0000,1500.0000,1500.0000,1464.0000
149656.2570,3.0000,1433.0000,1477.0000,1503.0000,5.0000,-10.0000,-30.0000,141.0000,-192.0000,2986.0000,0.0271,-0.0275,0.0826,0.9958,133.3800,-41.3600,-97.8400,-18.1700,2.2700,2.2500,0.0000,0.0000,-0.0000,1500.0000,1500.0000,1500.0000,1466.0000
149672.9720,3.0000,1435.0000,1476.0000,1500.0000,3.0000,-10.0000,-31.0000,76.0000,-289.0000,3006.0000,0.0316,-0.0264,0.0833,0.9957,133.3800,-41.3600,-97.8400,-18.1700,2.2700,2.2500,0.0000,0.0000,-0.0000,1500.0000,1500.0000,1500.0000,1466.0000
149689.5240,3.0000,1434.0000,1474.0000,1500.0000,1.0000,-7.0000,-32.0000,118.0000,-190.0000,2954.0000,0.0362,-0.0255,0.0833,0.9955,132.9700,-41.3000,-97.7900,-18.3000,2.2100,2.1800,0.0000,0.0000,-0.0000,1500.0000,1500.0000,1500.0000,1465.0000
149706.0820,3.0000,1432.0000,1473.0000,1499.0000,-1.0000,-7.0000,-32.0000,130.0000,-124.0000,2948.0000,0.0407,-0.0249,0.0831,0.9954,132.5400,-41.2400,-97.7400,-18.4500,2.1400,2.1000,0.0000,0.0000,-0.0000,1500.0000,1500.0000,1500.0000,1463.0000
149722.8520,3.0000,1434.0000,1474.0000,1502.0000,2.0000,-7.0000,-33.0000,94.0000,-199.0000,2772.0000,0.0454,-0.0244,0.0829,0.9952,132.1200,-41.1800,-97.6800,-18.5900,2.0800,2.0200,0.0000,0.0000,-0.0000,1500.0000,1500.0000,1500.0000,1465.0000
149739.5200,3.0000,1433.0000,1477.0000,1507.0000,8.0000,-4.0000,-32.0000,70.0000,-188.0000,2414.0000,0.0502,-0.0242,0.0834,0.9950,131.7000,-41.1300,-97.6300,-18.7000,2.0200,1.9700,0.0000,0.0000,-0.0000,1500.0000,1500.0000,1500.0000,1464.0000
149756.1650,3.0000,1434.0000,1480.0000,1508.0000,12.0000,-5.0000,-31.0000,1.0000,-337.0000,2224.0000,0.0548,-0.0241,0.0849,0.9946,131.7000,-41.1300,-97.6300,-18.7000,2.0200,1.9700,0.0000,0.0000,-0.0000,1500.0000,1500.0000,1500.0000,1465.0000
149772.7650,3.0000,1433.0000,1480.0000,1510.0000,14.0000,-3.0000,-28.0000,3.0000,-393.0000,2183.0000,0.0591,-0.0243,0.0864,0.9942,131.3000,-41.0800,-97.5800,-18.7900,1.9600,1.9600,0.0000,0.0000,-0.0000,1500.0000,1498.0000,1500.0000,1464.0000
149789.3760,3.0000,1434.0000,1479.0000,1511.0000,13.0000,-2.0000,-24.0000,83.0000,-291.0000,2217.0000,0.0629,-0.0245,0.0883,0.9938,130.8700,-41.0300,-97.5300,-18.8900,1.8900,1.9600,0.0000,0.0000,-0.0000,1500.0000,1500.0000,1500.0000,1465.0000
149805.8790,3.0000,1434.0000,1477.0000,1507.0000,9.0000,-2.0000,-18.0000,151.0000,-393.0000,2439.0000,0.0658,-0.0247,0.0898,0.9935,130.4400,-40.9800,-97.4800,-19.0100,1.8200,1.9600,0.0000,0.0000,-0.0000,1500.0000,1498.0000,1500.0000,1466.0000
149822.5540,3.0000,1433.0000,1473.0000,1507.0000,6.0000,1.0000,-12.0000,108.0000,-518.0000,2585.0000,0.0678,-0.0249,0.0906,0.9933,130.0100,-40.9300,-97.4300,-19.1200,1.7400,1.9400,0.0000,0.0000,-0.0000,1500.0000,1500.0000,1500.0000,1464.0000
149839.0870,3.0000,1433.0000,1474.0000,1508.0000,7.0000,1.0000,-8.0000,114.0000,-281.0000,2284.0000,0.0690,-0.0254,0.0913,0.9931,129.5900,-40.8900,-97.3800,-19.2200,1.6600,1.9200,0.0000,0.0000,-0.0000,1500.0000,1500.0000,1500.0000,1465.0000
149855.7010,3.0000,1434.0000,1475.0000,1509.0000,8.0000,2.0000,-5.0000,36.0000,-293.0000,2066.0000,0.0698,-0.0259,0.0925,0.9929,129.5900,-40.8900,-97.3800,-19.2200,1.6600,1.9200,0.0000,0.0000,-0.0000,1500.0000,1500.0000,1500.0000,1465.0000
149872.5590,3.0000,1434.0000,1476.0000,1510.0000,9.0000,2.0000,-2.0000,-23.0000,-426.0000,1933.0000,0.0701,-0.0262,0.0940,0.9928,129.1800,-40.8400,-97.3300,-19.2900,1.6000,1.9200,0.0000,0.0000,-0.0000,1500.0000,1498.0000,1500.0000,1465.0000
149889.1020,3.0000,1434.0000,1476.0000,1510.0000,9.0000,1.0000,2.0000,-44.0000,-406.0000,1761.0000,0.0700,-0.0264,0.0953,0.9926,128.7400,-40.8000,-97.2800,-19.3800,1.5300,1.9400,0.0000,0.0000,-0.0000,1500.0000,1498.0000,1500.0000,1465.0000
149905.8020,3.0000,1435.0000,1478.0000,1510.0000,10.0000,0.0000,6.0000,-22.0000,-387.0000,1659.0000,0.0693,-0.0264,0.0965,0.9926,128.3000,-40.7600,-97.2300,-19.4600,1.4500,1.9800,0.0000,0.0000,-0.0000,1500.0000,1500.0000,1500.0000,1466.0000
149922.5740,3.0000,1434.0000,1481.0000,1513.0000,16.0000,0.0000,9.0000,52.0000,-310.0000,1695.0000,0.0682,-0.0262,0.0982,0.9925,127.8600,-40.7200,-97.1700,-19.5400,1.3800,2.0300,0.0000,0.0000,-0.0000,1500.0000,1498.0000,1500.0000,1465.0000
149939.2110,3.0000,1433.0000,1483.0000,1515.0000,20.0000,-1.0000,11.0000,60.0000,-369.0000,1856.0000,0.0668,-0.0259,0.1003,0.9924,127.4400,-40.6900,-97.1200,-19.6100,1.3200,2.0600,0.0000,0.0000,-0.0000,1498.0000,1500.0000,1500.0000,1464.0000
149955.8550,3.0000,1433.0000,1481.0000,1515.0000,17.0000,1.0000,13.0000,-61.0000,-312.0000,2022.0000,0.0650,-0.0256,0.1024,0.9923,127.4400,-40.6900,-97.1200,-19.6100,1.3200,2.0600,0.0000,0.0000,-0.0000,1500.0000,1500.0000,1500.0000,1464.0000
149972.5060,3.0000,1434.0000,1481.0000,1511.0000,14.0000,-2.0000,15.0000,-37.0000,-318.0000,2267.0000,0.0631,-0.0255,0.1045,0.9922,127.0200,-40.6600,-97.0700,-19.6600,1.2500,2.0800,0.0000,0.0000,-0.0000,1500.0000,1500.0000,1500.0000,1465.0000
149989.1190,3.0000,1434.0000,1476.0000,1508.0000,8.0000,0.0000,17.0000,57.0000,-387.0000,2567.0000,0.0608,-0.0253,0.1060,0.9922,126.5800,-40.6200,-97.0200,-19.7300,1.1600,2.0800,0.0000,0.0000,-0.0000,1500.0000,1500.0000,1500.0000,1465.0000
150005.7300,3.0000,1434.0000,1476.0000,1508.0000,7.0000,0.0000,18.0000,90.0000,-329.0000,2745.0000,0.0583,-0.0252,0.1070,0.9922,126.1300,-40.5900,-96.9600,-19.8100,1.0700,2.0500,0.0000,0.0000,-0.0000,1500.0000,1500.0000,1500.0000,1465.0000
150022.3250,3.0000,1434.0000,1477.0000,1507.0000,6.0000,-2.0000,18.0000,26.0000,-181.0000,2684.0000,0.0558,-0.0247,0.1080,0.9923,125.7000,-40.5600,-96.9100,-19.8800,0.9700,2.0000,0.0000,0.0000,-0.0000,1500.0000,1498.0000,1500.0000,1466.0000
150039.4120,3.0000,1433.0000,1477.0000,1507.0000,3.0000,-2.0000,16.0000,20.0000,-102.0000,2712.0000,0.0534,-0.0242,0.1087,0.9923,125.7000,-40.5600,-96.9100,-19.8800,0.9700,2.0000,0.0000,0.0000,-0.0000,1496.0000,1500.0000,1500.0000,1464.0000
150056.2890,2.0000,1000.0000,1522.0000,2000.0000,-1.0000,-3.0000,14.0000,17.0000,-65.0000,2665.0000,0.0513,-0.0238,0.1089,0.9924,125.2700,-40.5400,-96.8600,-19.9400,0.9000,1.9500,0.0000,0.0000,-0.0000,1000.0000,1022.0000,1500.0000,1002.0000
150072.9710,2.0000,1000.0000,1522.0000,2000.0000,-4.0000,-1.0000,10.0000,40.0000,143.0000,2394.0000,0.0498,-0.0236,0.1085,0.9926,124.8500,-40.5100,-96.8100,-19.9800,0.8300,1.9100,0.0000,0.0000,-0.0000,1000.0000,1022.0000,1500.0000,1002.0000
150089.6580,2.0000,1000.0000,1522.0000,2000.0000,-10.0000,-4.0000,5.0000,-87.0000,239.0000,2254.0000,0.0488,-0.0235,0.1080,0.9927,124.4100,-40.4900,-96.7600,-20.0500,0.7800,1.8700,0.0000,0.0000,-0.0000,1000.0000,1022.0000,1500.0000,1002.0000
150106.3800,2.0000,1000.0000,1522.0000,2000.0000,-36.0000,-13.0000,3.0000,-334.0000,187.0000,2081.0000,0.0485,-0.0224,0.1040,0.9931,123.9500,-40.4700,-96.7100,-20.1000,0.7500,1.8500,0.0000,0.0000,-0.0000,1000.0000,1022.0000,1500.0000,1002.0000
150123.4890,2.0000,1000.0000,1522.0000,2000.0000,-72.0000,-27.0000,3.0000,-566.0000,230.0000,1912.0000,0.0485,-0.0205,0.0962,0.9940,123.5200,-40.4500,-96.6600,-20.1200,0.7200,1.8500,0.0000,0.0000,-0.0000,1000.0000,1022.0000,1500.0000,1002.0000
150140.2310,2.0000,1000.0000,1522.0000,2000.0000,-114.0000,-47.0000,4.0000,-735.0000,204.0000,2133.0000,0.0484,-0.0163,0.0824,0.9953,123.5200,-40.4500,-96.6600,-20.1200,0.7200,1.8500,0.0000,0.0000,-0.0000,1000.0000,1022.0000,1500.0000,1002.0000
150156.9330,2.0000,1000.0000,1522.0000,2000.0000,-148.0000,-61.0000,4.0000,-798.0000,194.0000,2629.0000,0.0485,-0.0095,0.0630,0.9968,123.0800,-40.4300,-96.6100,-20.0900,0.7000,1.8600,0.0000,0.0000,-0.0000,1000.0000,1022.0000,1500.0000,1002.0000
150173.6070,2.0000,1000.0000,1522.0000,2000.0000,-164.0000,-72.0000,4.0000,-792.0000,254.0000,3335.0000,0.0487,-0.0007,0.0402,0.9980,122.6600,-40.4100,-96.5600,-20.0500,0.6900,1.8100,0.0000,0.0000,-0.0000,1000.0000,1022.0000,1500.0000,1002.0000
150190.1650,2.0000,1000.0000,1522.0000,2000.0000,-183.0000,-79.0000,5.0000,-753.0000,93.0000,4314.0000,0.0491,0.0090,0.0143,0.9987,122.2200,-40.3900,-96.5200,-20.0300,0.6700,1.6800,0.0000,0.0000,-0.0000,1000.0000,1022.0000,1500.0000,1002.0000
150206.9900,2.0000,1000.0000,1522.0000,2000.0000,-194.0000,-76.0000,3.0000,-680.0000,-41.0000,4977.0000,0.0496,0.0191,-0.0139,0.9985,121.7700,-40.3700,-96.4800,-20.0200,0.6400,1.4400,0.0000,0.0000,-0.0000,1000.0000,1022.0000,1500.0000,1002.0000
150223.8860,2.0000,1000.0000,1522.0000,2000.0000,-199.0000,-75.0000,-1.0000,-619.0000,33.0000,5304.0000,0.0505,0.0290,-0.0434,0.9974,121.3400,-40.3600,-96.4400,-20.0100,0.6300,1.1500,0.0000,0.0000,-0.0000,1000.0000,1022.0000,1500.0000,1002.0000
150240.4860,2.0000,1000.0000,1522.0000,2000.0000,-204.0000,-69.0000,-6.0000,-564.0000,213.0000,5454.0000,0.0518,0.0378,-0.0730,0.9953,121.3400,-40.3600,-96.4400,-20.0100,0.6300,1.1500,0.0000,0.0000,-0.0000,1000.0000,1022.0000,1500.0000,1002.0000
150257.2190,2.0000,1000.0000,1522.0000,2000.0000,-194.0000,-62.0000,-9.0000,-592.0000,61.0000,6231.0000,0.0540,0.0456,-0.1027,0.9922,120.9000,-40.3400,-96.4100,-19.9800,0.6700,0.8400,0.0000,0.0000,-0.0000,1000.0000,1022.0000,1500.0000,1002.0000
150274.2380,2.0000,1692.0000,1000.0000,1177.0000,-196.0000,-54.0000,-9.0000,-635.0000,-167.0000,7008.0000,0.0564,0.0525,-0.1317,0.9883,120.4800,-40.3200,-96.3800,-19.9400,0.7500,0.4800,0.0000,0.0000,-0.0000,1968.0000,1355.0000,1500.0000,1709.0000
150291.1370,2.0000,1692.0000,1000.0000,1177.0000,-185.0000,-44.0000,-9.0000,-596.0000,-266.0000,6942.0000,0.0591,0.0580,-0.1600,0.9836,120.0300,-40.3000,-96.3600,-19.9100,0.8400,0.0400,0.0000,0.0000,-0.0000,1968.0000,1355.0000,1500.0000,1709.0000
150308.1110,2.0000,1692.0000,1000.0000,1177.0000,-156.0000,-42.0000,-12.0000,-238.0000,-288.0000,6305.0000,0.0618,0.0630,-0.1852,0.9787,119.5800,-40.2800,-96.3500,-19.8700,0.9400,-0.3700,0.0000,0.0000,-0.0000,1968.0000,1355.0000,1500.0000,1709.0000
150324.9750,2.0000,1692.0000,1000.0000,1177.0000,-104.0000,-43.0000,-21.0000,212.0000,-350.0000,6042.0000,0.0650,0.0682,-0.2041,0.9744,119.1400,-40.2600,-96.3500,-19.8600,1.0500,-0.7100,0.0000,0.0000,-0.0000,1968.0000,1355.0000,1500.0000,1709.0000
150341.7840,2.0000,1692.0000,1000.0000,1177.0000,-32.0000,-44.0000,-32.0000,475.0000,-394.0000,5873.0000,0.0685,0.0746,-0.2139,0.9716,119.1400,-40.2600,-96.3500,-19.8600,1.0500,-0.7100,0.0000,0.0000,-0.0000,1968.0000,1355.0000,1500.0000,1709.0000
150358.4600,2.0000,1691.0000,1000.0000,1177.0000,47.0000,-33.0000,-40.0000,660.0000,-529.0000,6324.0000,0.0728,0.0813,-0.2129,0.9710,118.7200,-40.2400,-96.3600,-19.8700,1.1600,-1.0300,0.0000,0.0000,-0.0000,1968.0000,1355.0000,1500.0000,1708.0000
150375.2020,2.0000,1691.0000,1000.0000,1177.0000,135.0000,-7.0000,-46.0000,719.0000,-565.0000,6629.0000,0.0778,0.0864,-0.1993,0.9730,118.3100,-40.2100,-96.3700,-19.8800,1.2700,-1.3700,0.0000,0.0000,-0.0000,1968.0000,1355.0000,1500.0000,1708.0000
150391.9610,2.0000,1691.0000,1000.0000,1177.0000,215.0000,20.0000,-46.0000,661.0000,-676.0000,6306.0000,0.0826,0.0888,-0.1733,0.9774,117.8700,-40.1900,-96.3900,-19.8900,1.3900,-1.7500,0.0000,0.0000,-0.0000,1968.0000,1355.0000,1500.0000,1708.0000
150408.8140,2.0000,1691.0000,1000.0000,1177.0000,273.0000,39.0000,-45.0000,601.0000,-815.0000,5510.0000,0.0868,0.0883,-0.1369,0.9828,117.4200,-40.1600,-96.4100,-19.8800,1.4300,-2.1000,0.0000,0.0000,-0.0000,1968.0000,1355.0000,1500.0000,1708.0000
150425.6540,2.0000,1691.0000,1000.0000,1177.0000,321.0000,63.0000,-38.0000,656.0000,-678.0000,4507.0000,0.0900,0.0856,-0.0921,0.9880,116.9900,-40.1300,-96.4400,-19.8700,1.3900,-2.3700,0.0000,0.0000,-0.0000,1968.0000,1355.0000,1500.0000,1708.0000
150442.3620,2.0000,1691.0000,1000.0000,1177.0000,348.0000,76.0000,-35.0000,686.0000,-712.0000,3500.0000,0.0920,0.0803,-0.0425,0.9916,116.9900,-40.1300,-96.4400,-19.8700,1.3900,-2.3700,0.0000,0.0000,-0.0000,1968.0000,1355.0000,1500.0000,1708.0000
150459.1900,2.0000,1741.0000,1303.0000,1547.0000,383.0000,93.0000,-31.0000,454.0000,-513.0000,2523.0000,0.0925,0.0728,0.0124,0.9930,116.5700,-40.1100,-96.4700,-19.8700,1.2900,-2.5200,0.0000,0.0000,-0.0000,1568.0000,1377.0000,1500.0000,1757.0000
150476.1520,2.0000,1743.0000,1312.0000,1556.0000,397.0000,98.0000,-26.0000,231.0000,-307.0000,1589.0000,0.0914,0.0637,0.0713,0.9912,116.1300,-40.0800,-96.5000,-19.8900,1.2000,-2.5700,0.0000,0.0000,-0.0000,1568.0000,1377.0000,1500.0000,1757.0000
150492.9550,2.0000,1743.0000,1312.0000,1556.0000,395.0000,109.0000,-21.0000,252.0000,-183.0000,700.0000,0.0891,0.0538,0.1307,0.9859,115.6800,-40.0600,-96.5300,-19.9000,1.1300,-2.4900,0.0000,0.0000,-0.0000,1568.0000,1377.0000,1500.0000,1757.0000
150509.8290,2.0000,1743.0000,1312.0000,1556.0000,351.0000,97.0000,-14.0000,360.0000,-380.0000,-333.0000,0.0857,0.0429,0.1860,0.9779,115.2500,-40.0500,-96.5600,-19.9200,1.0900,-2.3200,0.0000,0.0000,-0.0000,1568.0000,1377.0000,1500.0000,1757.0000
150526.9260,2.0000,1743.0000,1312.0000,1556.0000,272.0000,78.0000,-4.0000,694.0000,-480.0000,-1234.0000,0.0818,0.0338,0.2323,0.9686,114.8300,-40.0300,-96.5800,-19.9500,1.0600,-2.0400,0.0000,0.0000,-0.0000,1568.0000,1377.0000,1500.0000,1757.0000
150543.8330,2.0000,1743.0000,1312.0000,1556.0000,211.0000,51.0000,10.0000,616.0000,-446.0000,-1715.0000,0.0774,0.0271,0.2671,0.9602,114.8300,-40.0300,-96.5800,-19.9500,1.0600,-2.0400,0.0000,0.0000,-0.0000,1568.0000,1377.0000,1500.0000,1757.0000
150560.7550,2.0000,1744.0000,1313.0000,1555.0000,167.0000,23.0000,18.0000,408.0000,-539.0000,-1851.0000,0.0727,0.0246,0.2940,0.9527,114.4200,-40.0100,-96.5900,-20.0000,1.0800,-1.7000,0.0000,0.0000,-0.0000,1568.0000,1378.0000,1500.0000,1758.0000
150577.5070,2.0000,1744.0000,1313.0000,1555.0000,133.0000,3.0000,24.0000,328.0000,-523.0000,-1649.0000,0.0681,0.0250,0.3148,0.9464,113.9800,-39.9900,-96.6000,-20.0500,1.1200,-1.3300,0.0000,0.0000,-0.0000,1568.0000,1378.0000,1500.0000,1758.0000
150594.3490,2.0000,1744.0000,1313.0000,1555.0000,105.0000,-13.0000,29.0000,753.0000,-442.0000,-892.0000,0.0635,0.0282,0.3308,0.9412,113.5400,-39.9700,-96.6100,-20.1000,1.1500,-0.9800,0.0000,0.0000,-0.0000,1568.0000,1378.0000,1500.0000,1758.0000
150611.3490,2.0000,1744.0000,1313.0000,1555.0000,91.0000,-34.0000,33.0000,697.0000,-379.0000,-158.0000,0.0593,0.0336,0.3437,0.9366,113.1100,-39.9500,-96.6000,-20.1600,1.1500,-0.7100,0.0000,0.0000,-0.0000,1568.0000,1378.0000,1500.0000,1758.0000
150628.1410,2.0000,1744.0000,1313.0000,1555.0000,76.0000,-48.0000,33.0000,692.0000,-80.0000,466.0000,0.0560,0.0416,0.3550,0.9323,112.6900,-39.9300,-96.6000,-20.1900,1.1000,-0.5000,0.0000,0.0000,-0.0000,1568.0000,1378.0000,1500.0000,1758.0000
150645.0270,2.0000,1643.0000,1252.0000,1598.0000,69.0000,-61.0000,31.0000,578.0000,-5.0000,1104.0000,0.0536,0.0510,0.3641,0.9284,112.6900,-39.9300,-96.6000,-20.1900,1.1000,-0.5000,0.0000,0.0000,-0.0000,1611.0000,1145.0000,1500.0000,1332.0000
150661.7860,2.0000,1294.0000,1036.0000,1746.0000,59.0000,-69.0000,29.0000,524.0000,-287.0000,1881.0000,0.0520,0.0616,0.3721,0.9247,112.2800,-39.9200,-96.5900,-20.2000,1.0300,-0.3600,0.0000,0.0000,-0.0000,1611.0000,1145.0000,1500.0000,1332.0000
150678.8840,2.0000,1294.0000,1036.0000,1746.0000,58.0000,-79.0000,23.0000,544.0000,132.0000,2670.0000,0.0514,0.0734,0.3791,0.9210,111.8300,-39.9000,-96.5700,-20.2300,0.8800,-0.2600,0.0000,0.0000,-0.0000,1611.0000,1145.0000,1500.0000,1332.0000
150695.9780,2.0000,1294.0000,1036.0000,1746.0000,48.0000,-95.0000,12.0000,237.0000,227.0000,3093.0000,0.0526,0.0864,0.3860,0.9169,111.3900,-39.8800,-96.5500,-20.2300,0.7000,-0.2300,0.0000,0.0000,-0.0000,1611.0000,1145.0000,1500.0000,1332.0000
150712.9820,2.0000,1294.0000,1036.0000,1746.0000,48.0000,-122.0000,-1.0000,-120.0000,223.0000,3529.0000,0.0567,0.1017,0.3919,0.9126,110.9600,-39.8700,-96.5400,-20.1800,0.5100,-0.2500,0.0000,0.0000,-0.0000,1611.0000,1145.0000,1500.0000,1332.0000
150729.7640,2.0000,1294.0000,1036.0000,1746.0000,43.0000,-147.0000,-13.0000,-199.0000,75.0000,4672.0000,0.0643,0.1197,0.3970,0.9077,110.5400,-39.8700,-96.5200,-20.0500,0.2700,-0.3100,0.0000,0.0000,-0.0000,1611.0000,1145.0000,1500.0000,1332.0000
150746.6800,2.0000,1294.0000,1036.0000,1746.0000,32.0000,-159.0000,-25.0000,-33.0000,185.0000,5907.0000,0.0747,0.1392,0.4009,0.9024,110.5400,-39.8700,-96.5200,-20.0500,0.2700,-0.3100,0.0000,0.0000,-0.0000,1611.0000,1145.0000,1500.0000,1332.0000
150763.3420,2.0000,1297.0000,1046.0000,1768.0000,18.0000,-161.0000,-35.0000,116.0000,171.0000,6913.0000,0.0870,0.1585,0.4030,0.8972,110.1500,-39.8700,-96.5100,-19.8700,-0.0400,-0.4600,0.0000,0.0000,-0.0000,1595.0000,1139.0000,1500.0000,1334.0000
150780.3100,2.0000,1297.0000,1046.0000,1768.0000,4.0000,-162.0000,-45.0000,217.0000,124.0000,7737.0000,0.1009,0.1773,0.4033,0.8920,109.7200,-39.8700,-96.5100,-19.6900,-0.4200,-0.6800,0.0000,0.0000,-0.0000,1595.0000,1139.0000,1500.0000,1334.0000
150797.0300,2.0000,1297.0000,1046.0000,1768.0000,-2.0000,-155.0000,-55.0000,231.0000,-19.0000,8377.0000,0.1158,0.1946,0.4025,0.8870,109.3000,-39.8900,-96.5100,-19.4400,-0.8700,-0.9500,0.0000,0.0000,-0.0000,1595.0000,1139.0000,1500.0000,1334.0000
150813.9210,2.0000,1297.0000,1046.0000,1768.0000,0.0000,-135.0000,-69.0000,171.0000,-47.0000,8740.0000,0.1315,0.2093,0.4017,0.8818,108.9000,-39.9100,-96.5100,-19.1400,-1.3300,-1.2500,0.0000,0.0000,-0.0000,1595.0000,1139.0000,1500.0000,1334.0000
150830.9980,2.0000,1297.0000,1046.0000,1768.0000,3.0000,-116.0000,-79.0000,163.0000,-180.0000,8904.0000,0.1479,0.2210,0.4017,0.8763,108.5100,-39.9400,-96.5300,-18.7800,-1.7800,-1.5500,0.0000,0.0000,-0.0000,1595.0000,1139.0000,1500.0000,1334.0000
150847.6670,2.0000,1297.0000,1046.0000,1768.0000,12.0000,-95.0000,-87.0000,195.0000,-278.0000,8386.0000,0.1636,0.2292,0.4031,0.8708,108.5100,-39.9400,-96.5300,-18.7800,-1.7800,-1.5500,0.0000,0.0000,-0.0000,1595.0000,1139.0000,1500.0000,1334.0000
150864.4910,2.0000,1297.0000,1048.0000,1772.0000,20.0000,-78.0000,-95.0000,135.0000,-219.0000,8055.0000,0.1791,0.2348,0.4061,0.8648,108.1400,-39.9800,-96.5500,-18.4100,-2.2100,-1.8300,0.0000,0.0000,-0.0000,1592.0000,1138.0000,1500.0000,1334.0000
150881.2500,2.0000,1297.0000,1048.0000,1772.0000,26.0000,-61.0000,-100.0000,40.0000,-303.0000,7704.0000,0.1939,0.2378,0.4107,0.8586,107.7400,-40.0300,-96.5800,-18.0500,-2.6600,-2.0700,0.0000,0.0000,-0.0000,1592.0000,1138.0000,1500.0000,1334.0000
150898.0890,2.0000,1297.0000,1048.0000,1772.0000,25.0000,-40.0000,-100.0000,9.0000,-477.0000,7218.0000,0.2077,0.2382,0.4163,0.8525,107.3600,-40.0900,-96.6100,-17.7100,-3.0600,-2.2600,0.0000,0.0000,-0.0000,1592.0000,1138.0000,1500.0000,1334.0000
150914.8250,2.0000,1297.0000,1048.0000,1772.0000,38.0000,-32.0000,-98.0000,-8.0000,-569.0000,6491.0000,0.2201,0.2370,0.4226,0.8466,106.9900,-40.1500,-96.6500,-17.3800,-3.4200,-2.4000,0.0000,0.0000,-0.0000,1592.0000,1138.0000,1500.0000,1334.0000
150931.7920,2.0000,1297.0000,1048.0000,1772.0000,49.0000,-22.0000,-97.0000,-62.0000,-546.0000,6037.0000,0.2315,0.2353,0.4310,0.8398,106.6400,-40.2200,-96.6900,-17.1000,-3.7100,-2.4700,0.0000,0.0000,-0.0000,1592.0000,1138.0000,1500.0000,1334.0000
150948.5330,2.0000,1297.0000,1048.0000,1772.0000,49.0000,-17.0000,-93.0000,-100.0000,-576.0000,5546.0000,0.2418,0.2328,0.4399,0.8330,106.6400,-40.2200,-96.6900,-17.1000,-3.7100,-2.4700,0.0000,0.0000,-0.0000,1592.0000,1138.0000,1500.0000,1334.0000
150965.4530,2.0000,1287.0000,1050.0000,1334.0000,52.0000,-13.0000,-85.0000,-100.0000,-760.0000,4892.0000,0.2512,0.2301,0.4487,0.8262,106.3000,-40.2900,-96.7300,-16.8400,-3.9600,-2.5100,0.0000,0.0000,-0.0000,1809.0000,1357.0000,1500.0000,1325.0000
150982.4170,2.0000,1287.0000,1050.0000,1334.0000,52.0000,-11.0000,-73.0000,-133.0000,-838.0000,4316.0000,0.2592,0.2278,0.4574,0.8196,105.9400,-40.3700,-96.7700,-16.6000,-4.2800,-2.4900,0.0000,0.0000,-0.0000,1809.0000,1357.0000,1500.0000,1325.0000
150999.1900,2.0000,1287.0000,1050.0000,1334.0000,58.0000,-10.0000,-65.0000,-208.0000,-803.0000,3818.0000,0.2655,0.2260,0.4657,0.8134,105.5900,-40.4600,-96.8200,-16.3900,-4.5600,-2.4200,0.0000,0.0000,-0.0000,1809.0000,1357.0000,1500.0000,1325.0000
151015.9800,2.0000,1287.0000,1050.0000,1334.0000,81.0000,-6.0000,-57.0000,-230.0000,-823.0000,3545.0000,0.2701,0.2248,0.4757,0.8064,105.2500,-40.5500,-96.8600,-16.2100,-4.7900,-2.3200,0.0000,0.0000,-0.0000,1809.0000,1357.0000,1500.0000,1325.0000
151032.9690,2.0000,1287.0000,1050.0000,1334.0000,121.0000,2.0000,-49.0000,-240.0000,-874.0000,3250.0000,0.2725,0.2248,0.4896,0.7972,104.9200,-40.6500,-96.9000,-16.0500,-4.9800,-2.1900,0.0000,0.0000,-0.0000,1809.0000,1357.0000,1500.0000,1325.0000
151049.6470,2.0000,1385.0000,1117.0000,1397.0000,155.0000,7.0000,-42.0000,-256.0000,-804.0000,2817.0000,0.2721,0.2260,0.5077,0.7856,104.9200,-40.6500,-96.9000,-16.0500,-4.9800,-2.1900,0.0000,0.0000,-0.0000,1520.0000,1365.0000,1500.0000,1744.0000
151066.7340,2.0000,1729.0000,1348.0000,1616.0000,196.0000,6.0000,-34.0000,-301.0000,-747.0000,2247.0000,0.2692,0.2289,0.5301,0.7708,104.6000,-40.7400,-96.9300,-15.9100,-5.1400,-2.0300,0.0000,0.0000,-0.0000,1520.0000,1365.0000,1500.0000,1744.0000
151083.8560,2.0000,1729.0000,1348.0000,1616.0000,217.0000,3.0000,-27.0000,-224.0000,-732.0000,1961.0000,0.2642,0.2337,0.5554,0.7531,104.2600,-40.8500,-96.9600,-15.7500,-5.3500,-1.8400,0.0000,0.0000,-0.0000,1520.0000,1365.0000,1500.0000,1744.0000
151100.6000,2.0000,1729.0000,1348.0000,1616.0000,203.0000,-5.0000,-17.0000,167.0000,-562.0000,2103.0000,0.2582,0.2393,0.5797,0.7348,103.9300,-40.9600,-96.9900,-15.6200,-5.5500,-1.6300,0.0000,0.0000,-0.0000,1520.0000,1365.0000,1500.0000,1744.0000
151117.6640,2.0000,1729.0000,1348.0000,1616.0000,159.0000,-16.0000,-5.0000,508.0000,-525.0000,2181.0000,0.2527,0.2453,0.5997,0.7186,103.6100,-41.0700,-97.0200,-15.5100,-5.7600,-1.4300,0.0000,0.0000,-0.0000,1520.0000,1365.0000,1500.0000,1744.0000
151134.6310,2.0000,1729.0000,1348.0000,1616.0000,121.0000,-29.0000,6.0000,693.0000,-607.0000,2204.0000,0.2490,0.2525,0.6134,0.7057,103.2900,-41.1900,-97.0400,-15.4300,-5.9800,-1.2100,0.0000,0.0000,-0.0000,1520.0000,1365.0000,1500.0000,1744.0000
151151.3590,2.0000,1729.0000,1348.0000,1616.0000,96.0000,-46.0000,19.0000,741.0000,-569.0000,2329.0000,0.2465,0.2607,0.6228,0.6952,103.2900,-41.1900,-97.0400,-15.4300,-5.9800,-1.2100,0.0000,0.0000,-0.0000,1520.0000,1365.0000,1500.0000,1744.0000
151168.2350,2.0000,1997.0000,1066.0000,1878.0000,82.0000,-60.0000,24.0000,779.0000,-569.0000,2389.0000,0.2450,0.2706,0.6291,0.6863,102.9800,-41.3100,-97.0500,-15.3400,-6.2200,-0.9800,0.0000,0.0000,-0.0000,1530.0000,1093.0000,1500.0000,1998.0000
151185.2500,2.0000,1997.0000,1065.0000,1879.0000,60.0000,-72.0000,27.0000,800.0000,-351.0000,2467.0000,0.2449,0.2815,0.6332,0.6781,102.6500,-41.4400,-97.0600,-15.2500,-6.5300,-0.7400,0.0000,0.0000,-0.0000,1530.0000,1093.0000,1500.0000,1998.0000
151202.2740,2.0000,1997.0000,1065.0000,1879.0000,44.0000,-97.0000,28.0000,1047.0000,-407.0000,2235.0000,0.2468,0.2935,0.6346,0.6710,102.3300,-41.5800,-97.0600,-15.1500,-6.8300,-0.5100,0.0000,0.0000,-0.0000,1530.0000,1093.0000,1500.0000,1998.0000
151219.2200,2.0000,1997.0000,1065.0000,1879.0000,29.0000,-135.0000,20.0000,1206.0000,-375.0000,2421.0000,0.2529,0.3078,0.6330,0.6638,102.0100,-41.7300,-97.0600,-15.0800,-7.1300,-0.2600,0.0000,0.0000,-0.0000,1530.0000,1093.0000,1500.0000,1998.0000
151236.3430,2.0000,1997.0000,1065.0000,1879.0000,12.0000,-167.0000,12.0000,1548.0000,-342.0000,3425.0000,0.2639,0.3244,0.6288,0.6556,101.7100,-41.8700,-97.0400,-14.9700,-7.4600,-0.0100,0.0000,0.0000,-0.0000,1530.0000,1093.0000,1500.0000,1998.0000
151253.3000,2.0000,1997.0000,1010.0000,1844.0000,-5.0000,-192.0000,2.0000,1617.0000,-311.0000,4549.0000,0.2791,0.3420,0.6219,0.6468,101.7100,-41.8700,-97.0400,-14.9700,-7.4600,-0.0100,0.0000,0.0000,-0.0000,1576.0000,1082.0000,1500.0000,1998.0000
151269.9400,2.0000,1997.0000,1008.0000,1844.0000,-20.0000,-213.0000,-7.0000,1552.0000,-252.0000,5784.0000,0.2975,0.3595,0.6127,0.6379,101.4200,-42.0200,-97.0200,-14.7700,-7.8400,0.2300,0.0000,0.0000,-0.0000,1576.0000,1082.0000,1500.0000,1998.0000
151286.9500,2.0000,1997.0000,1008.0000,1844.0000,-24.0000,-221.0000,-16.0000,1666.0000,-439.0000,7267.0000,0.3186,0.3770,0.6016,0.6280,101.0900,-42.2000,-96.9800,-14.4500,-8.3200,0.4800,0.0000,0.0000,-0.0000,1576.0000,1082.0000,1500.0000,1998.0000
151303.6000,2.0000,1997.0000,1008.0000,1844.0000,-27.0000,-220.0000,-23.0000,1742.0000,-372.0000,8321.0000,0.3397,0.3929,0.5905,0.6177,100.7700,-42.3900,-96.9400,-13.9800,-8.8300,0.7400,0.0000,0.0000,-0.0000,1576.0000,1082.0000,1500.0000,1998.0000
151320.5770,2.0000,1997.0000,1008.0000,1844.0000,-22.0000,-207.0000,-28.0000,1783.0000,-176.0000,9051.0000,0.3611,0.4078,0.5793,0.6064,100.4800,-42.5800,-96.9000,-13.3900,-9.3200,1.0000,0.0000,0.0000,-0.0000,1576.0000,1082.0000,1500.0000,1998.0000
151337.4860,2.0000,1997.0000,1008.0000,1844.0000,-13.0000,-198.0000,-37.0000,1978.0000,-317.0000,9674.0000,0.3814,0.4215,0.5692,0.5940,100.2200,-42.7700,-96.8400,-12.7400,-9.7500,1.2300,0.0000,0.0000,-0.0000,1576.0000,1082.0000,1500.0000,1998.0000
151354.2090,2.0000,1997.0000,1019.0000,1855.0000,-17.0000,-180.0000,-44.0000,1887.0000,-222.0000,9742.0000,0.4006,0.4329,0.5602,0.5816,100.2200,-42.7700,-96.8400,-12.7400,-9.7500,1.2300,0.0000,0.0000,-0.0000,1565.0000,1081.0000,1500.0000,1998.0000
151371.2190,2.0000,1997.0000,1018.0000,1856.0000,-21.0000,-161.0000,-51.0000,1792.0000,-286.0000,9738.0000,0.4193,0.4416,0.5521,0.5696,99.9800,-42.9600,-96.7900,-12.0600,-10.1300,1.4600,0.0000,0.0000,-0.0000,1565.0000,1081.0000,1500.0000,1998.0000
151388.3340,2.0000,1997.0000,1018.0000,1856.0000,-26.0000,-131.0000,-50.0000,1822.0000,-349.0000,9460.0000,0.4359,0.4471,0.5450,0.5595,99.7100,-43.1800,-96.7300,-11.3800,-10.5300,1.6700,0.0000,0.0000,-0.0000,1565.0000,1081.0000,1500.0000,1998.0000
151405.3200,2.0000,1997.0000,1018.0000,1856.0000,-29.0000,-109.0000,-51.0000,1706.0000,-555.0000,8845.0000,0.4504,0.4498,0.5390,0.5516,99.4600,-43.4100,-96.6600,-10.7400,-10.8500,1.8900,0.0000,0.0000,-0.0000,1565.0000,1081.0000,1500.0000,1998.0000
151422.7100,2.0000,1997.0000,1018.0000,1856.0000,-24.0000,-77.0000,-55.0000,1438.0000,-270.0000,8029.0000,0.4633,0.4507,0.5347,0.5443,99.2300,-43.6300,-96.6000,-10.1900,-11.0800,2.1100,0.0000,0.0000,-0.0000,1565.0000,1081.0000,1500.0000,1998.0000
151439.4970,2.0000,1997.0000,1018.0000,1856.0000,-10.0000,-53.0000,-59.0000,1123.0000,-124.0000,7014.0000,0.4732,0.4494,0.5334,0.5382,99.0300,-43.8500,-96.5300,-9.7400,-11.2300,2.2900,0.0000,0.0000,-0.0000,1565.0000,1081.0000,1500.0000,1998.0000
151456.5250,2.0000,1997.0000,1047.0000,1885.0000,-1.0000,-31.0000,-65.0000,931.0000,-75.0000,5749.0000,0.4813,0.4469,0.5345,0.5319,99.0300,-43.8500,-96.5300,-9.7400,-11.2300,2.2900,0.0000,0.0000,-0.0000,1535.0000,1081.0000,1500.0000,1998.0000
151473.4050,2.0000,1997.0000,1048.0000,1886.0000,12.0000,-24.0000,-71.0000,1308.0000,-80.0000,4653.0000,0.4878,0.4434,0.5379,0.5255,98.8300,-44.0700,-96.4600,-9.4200,-11.3000,2.4600,0.0000,0.0000,-0.0000,1535.0000,1081.0000,1500.0000,1998.0000
151490.1990,2.0000,1997.0000,1048.0000,1886.0000,23.0000,-35.0000,-76.0000,1061.0000,45.0000,3606.0000,0.4940,0.4407,0.5423,0.5174,98.6000,-44.3200,-96.3900,-9.0800,-11.5800,2.6400,0.0000,0.0000,-0.0000,1535.0000,1081.0000,1500.0000,1998.0000
151507.1860,2.0000,1997.0000,1048.0000,1886.0000,28.0000,-58.0000,-79.0000,880.0000,-104.0000,2955.0000,0.5015,0.4395,0.5463,0.5069,98.3900,-44.5700,-96.3100,-8.8800,-11.8000,2.8100,0.0000,0.0000,-0.0000,1535.0000,1081.0000,1500.0000,1998.0000
151524.0060,2.0000,1997.0000,1048.0000,1886.0000,25.0000,-84.0000,-82.0000,1123.0000,-316.0000,3096.0000,0.5112,0.4396,0.5484,0.4946,98.1900,-44.8100,-96.2400,-8.7500,-11.9600,3.0200,0.0000,0.0000,-0.0000,1535.0000,1081.0000,1500.0000,1998.0000
151541.0860,2.0000,1997.0000,1048.0000,1886.0000,21.0000,-109.0000,-84.0000,1287.0000,-508.0000,3672.0000,0.5235,0.4414,0.5483,0.4802,98.0100,-45.0500,-96.1600,-8.6000,-12.1200,3.2700,0.0000,0.0000,-0.0000,1535.0000,1081.0000,1500.0000,1998.0000
151557.5620,2.0000,1997.0000,1048.0000,1886.0000,20.0000,-140.0000,-84.0000,1213.0000,-511.0000,4336.0000,0.5374,0.4445,0.5457,0.4645,98.0100,-45.0500,-96.1600,-8.6000,-12.1200,3.2700,0.0000,0.0000,-0.0000,1535.0000,1081.0000,1500.0000,1998.0000
151574.3040,2.0000,1996.0000,1227.0000,2000.0000,22.0000,-162.0000,-81.0000,1494.0000,-698.0000,5234.0000,0.5532,0.4493,0.5407,0.4469,97.8200,-45.2900,-96.0700,-8.3600,-12.2800,3.5500,0.0000,0.0000,-0.0000,1347.0000,1075.0000,1500.0000,1997.0000
151591.3060,2.0000,1996.0000,1227.0000,2000.0000,12.0000,-179.0000,-73.0000,1868.0000,-782.0000,6475.0000,0.5703,0.4551,0.5333,0.4282,97.6300,-45.5600,-95.9800,-7.9100,-12.5500,3.8500,0.0000,0.0000,-0.0000,1347.0000,1075.0000,1500.0000,1997.0000
151608.1110,2.0000,1996.0000,1227.0000,2000.0000,-11.0000,-183.0000,-62.0000,1755.0000,-741.0000,7723.0000,0.5880,0.4604,0.5230,0.4108,97.4500,-45.8300,-95.8700,-7.3500,-12.8000,4.1800,0.0000,0.0000,-0.0000,1347.0000,1075.0000,1500.0000,1997.0000
151625.1660,2.0000,1996.0000,1227.0000,2000.0000,-30.0000,-176.0000,-50.0000,1961.0000,-807.0000,8605.0000,0.6061,0.4644,0.5102,0.3957,97.2900,-46.1000,-95.7600,-6.6800,-12.9700,4.4900,0.0000,0.0000,-0.0000,1347.0000,1075.0000,1500.0000,1997.0000
151641.8650,2.0000,1996.0000,1227.0000,2000.0000,-41.0000,-174.0000,-37.0000,1969.0000,-1075.0000,9376.0000,0.6237,0.4678,0.4956,0.3828,97.1500,-46.3600,-95.6400,-5.9500,-13.0600,4.8100,0.0000,0.0000,-0.0000,1347.0000,1075.0000,1500.0000,1997.0000
151658.4640,2.0000,1996.0000,1022.0000,1860.0000,-47.0000,-168.0000,-25.0000,1893.0000,-1015.0000,9743.0000,0.6403,0.4706,0.4798,0.3719,97.1500,-46.3600,-95.6400,-5.9500,-13.0600,4.8100,0.0000,0.0000,-0.0000,1562.0000,1081.0000,1500.0000,1998.0000
151675.3620,2.0000,1997.0000,1021.0000,1859.0000,-54.0000,-164.0000,-16.0000,1625.0000,-929.0000,9915.0000,0.6562,0.4730,0.4630,0.3624,97.0300,-46.6200,-95.5200,-5.1700,-13.0900,5.1000,0.0000,0.0000,-0.0000,1562.0000,1081.0000,1500.0000,1998.0000
151692.4300,2.0000,1997.0000,1021.0000,1859.0000,-50.0000,-155.0000,-10.0000,1664.0000,-878.0000,9941.0000,0.6711,0.4751,0.4456,0.3540,96.9100,-46.9100,-95.3900,-4.3800,-13.1300,5.3300,0.0000,0.0000,-0.0000,1562.0000,1081.0000,1500.0000,1998.0000
151709.1300,2.0000,1997.0000,1021.0000,1859.0000,-34.0000,-140.0000,-8.0000,1777.0000,-862.0000,9874.0000,0.6835,0.4776,0.4300,0.3462,96.8100,-47.1900,-95.2600,-3.6300,-13.1100,5.5200,0.0000,0.0000,-0.0000,1562.0000,1081.0000,1500.0000,1998.0000
151726.1520,2.0000,1997.0000,1021.0000,1859.0000,-17.0000,-133.0000,-11.0000,1487.0000,-738.0000,9799.0000,0.6941,0.4811,0.4157,0.3375,96.7200,-47.4600,-95.1200,-2.9400,-13.0400,5.6700,0.0000,0.0000,-0.0000,1562.0000,1081.0000,1500.0000,1998.0000
151742.7240,2.0000,1997.0000,1021.0000,1859.0000,-23.0000,-114.0000,-10.0000,1223.0000,-595.0000,9687.0000,0.7032,0.4845,0.4032,0.3290,96.6500,-47.7300,-94.9800,-2.3200,-12.9200,5.7800,0.0000,0.0000,-0.0000,1562.0000,1081.0000,1500.0000,1998.0000
151759.4920,2.0000,1997.0000,1012.0000,1846.0000,-27.0000,-97.0000,-10.0000,1216.0000,-641.0000,9198.0000,0.7114,0.4859,0.3922,0.3226,96.6500,-47.7300,-94.9800,-2.3200,-12.9200,5.7800,0.0000,0.0000,-0.0000,1574.0000,1083.0000,1500.0000,1998.0000
151776.2250,2.0000,1997.0000,1011.0000,1845.0000,-32.0000,-84.0000,-9.0000,1188.0000,-354.0000,8581.0000,0.7191,0.4863,0.3821,0.3170,96.5900,-47.9900,-94.8400,-1.7600,-12.7600,5.8500,0.0000,0.0000,-0.0000,1574.0000,1083.0000,1500.0000,1998.0000
151792.9880,2.0000,1997.0000,1011.0000,1845.0000,-29.0000,-74.0000,-10.0000,1249.0000,-398.0000,8398.0000,0.7259,0.4859,0.3732,0.3126,96.5300,-48.2800,-94.7000,-1.2600,-12.6300,5.9100,0.0000,0.0000,-0.0000,1574.0000,1083.0000,1500.0000,1998.0000
151809.6610,2.0000,1997.0000,1011.0000,1845.0000,-20.0000,-56.0000,-11.0000,1106.0000,-317.0000,7896.0000,0.7313,0.4854,0.3664,0.3089,96.4800,-48.5600,-94.5600,-0.8400,-12.5000,5.9600,0.0000,0.0000,-0.0000,1574.0000,1083.0000,1500.0000,1998.0000
151826.6730,2.0000,1997.0000,1011.0000,1845.0000,-5.0000,-50.0000,-12.0000,1204.0000,-245.0000,7173.0000,0.7354,0.4852,0.3615,0.3052,96.4400,-48.8200,-94.4200,-0.5000,-12.3900,5.9900,0.0000,0.0000,-0.0000,1574.0000,1083.0000,1500.0000,1998.0000
151843.4950,2.0000,1997.0000,1011.0000,1845.0000,5.0000,-45.0000,-17.0000,1172.0000,-173.0000,6430.0000,0.7383,0.4860,0.3580,0.3009,96.4000,-49.0700,-94.2800,-0.2800,-12.3100,6.0300,0.0000,0.0000,-0.0000,1574.0000,1083.0000,1500.0000,1998.0000
151859.9970,2.0000,1997.0000,1011.0000,1845.0000,7.0000,-45.0000,-22.0000,1116.0000,-206.0000,5640.0000,0.7410,0.4875,0.3549,0.2956,96.4000,-49.0700,-94.2800,-0.2800,-12.3100,6.0300,0.0000,0.0000,-0.0000,1574.0000,1083.0000,1500.0000,1998.0000
151876.5690,2.0000,1997.0000,1016.0000,1778.0000,3.0000,-60.0000,-25.0000,895.0000,-219.0000,5002.0000,0.7441,0.4889,0.3516,0.2893,96.3600,-49.3300,-94.1400,-0.0800,-12.2700,6.1000,0.0000,0.0000,-0.0000,1606.0000,1119.0000,1500.0000,1998.0000
151893.4410,2.0000,1997.0000,1015.0000,1777.0000,2.0000,-80.0000,-33.0000,1007.0000,-269.0000,4702.0000,0.7486,0.4906,0.3462,0.2812,96.3300,-49.6100,-93.9900,0.2000,-12.2200,6.1800,0.0000,0.0000,-0.0000,1606.0000,1119.0000,1500.0000,1998.0000
151910.3590,2.0000,1997.0000,1015.0000,1777.0000,6.0000,-111.0000,-43.0000,602.0000,-397.0000,4698.0000,0.7548,0.4927,0.3385,0.2702,96.3000,-49.8800,-93.8500,0.4500,-12.1800,6.2900,0.0000,0.0000,-0.0000,1606.0000,1119.0000,1500.0000,1998.0000
151927.5390,2.0000,1997.0000,1015.0000,1777.0000,19.0000,-137.0000,-54.0000,783.0000,-325.0000,5212.0000,0.7617,0.4966,0.3287,0.2551,96.2700,-50.1400,-93.7000,0.6500,-12.0800,6.4000,0.0000,0.0000,-0.0000,1606.0000,1119.0000,1500.0000,1998.0000
151944.4920,2.0000,1997.0000,1015.0000,1777.0000,25.0000,-160.0000,-63.0000,1101.0000,-362.0000,6161.0000,0.7692,0.5017,0.3171,0.2367,96.2500,-50.3900,-93.5600,0.9100,-11.9400,6.5000,0.0000,0.0000,-0.0000,1606.0000,1119.0000,1500.0000,1998.0000
151961.2540,2.0000,1994.0000,1289.0000,2000.0000,32.0000,-175.0000,-66.0000,1244.0000,-382.0000,7254.0000,0.7767,0.5075,0.3042,0.2160,96.2500,-50.3900,-93.5600,0.9100,-11.9400,6.5000,0.0000,0.0000,-0.0000,1277.0000,1070.0000,1500.0000,1995.0000
151978.1750,2.0000,1994.0000,1292.0000,2000.0000,35.0000,-185.0000,-68.0000,1194.0000,-409.0000,8365.0000,0.7842,0.5140,0.2893,0.1929,96.2400,-50.6300,-93.4100,1.2900,-11.7100,6.5700,0.0000,0.0000,-0.0000,1277.0000,1070.0000,1500.0000,1995.0000
151994.8150,2.0000,1994.0000,1292.0000,2000.0000,19.0000,-187.0000,-66.0000,1514.0000,-736.0000,9552.0000,0.7913,0.5192,0.2743,0.1706,96.2500,-50.8900,-93.2600,1.8800,-11.3300,6.6200,0.0000,0.0000,-0.0000,1277.0000,1070.0000,1500.0000,1995.0000
152011.7380,2.0000,1994.0000,1292.0000,2000.0000,-18.0000,-181.0000,-57.0000,1759.0000,-912.0000,10633.0000,0.7999,0.5209,0.2578,0.1499,96.2600,-51.1400,-93.1000,2.5000,-10.8400,6.6500,0.0000,0.0000,-0.0000,1277.0000,1070.0000,1500.0000,1995.0000
152028.7000,2.0000,1994.0000,1292.0000,2000.0000,-45.0000,-163.0000,-47.0000,1791.0000,-901.0000,11223.0000,0.8098,0.5183,0.2410,0.1323,96.2900,-51.3600,-92.9500,3.1100,-10.2500,6.6400,0.0000,0.0000,-0.0000,1277.0000,1070.0000,1500.0000,1995.0000
152045.3020,2.0000,1994.0000,1292.0000,2000.0000,-56.0000,-152.0000,-38.0000,1831.0000,-937.0000,11274.0000,0.8195,0.5136,0.2251,0.1179,96.3300,-51.5700,-92.8000,3.6800,-9.6300,6.5900,0.0000,0.0000,-0.0000,1277.0000,1070.0000,1500.0000,1995.0000
152062.2730,2.0000,1996.0000,1125.0000,1963.0000,-68.0000,-139.0000,-28.0000,1667.0000,-1023.0000,11389.0000,0.8292,0.5076,0.2089,0.1053,96.3300,-51.5700,-92.8000,3.6800,-9.6300,6.5900,0.0000,0.0000,-0.0000,1455.0000,1081.0000,1500.0000,1998.0000
152079.2240,2.0000,1997.0000,1125.0000,1963.0000,-72.0000,-123.0000,-18.0000,1679.0000,-890.0000,11121.0000,0.8386,0.5002,0.1938,0.0954,96.3800,-51.7700,-92.6500,4.2000,-8.9900,6.5000,0.0000,0.0000,-0.0000,1455.0000,1081.0000,1500.0000,1998.0000
152096.2340,2.0000,1997.0000,1125.0000,1963.0000,-68.0000,-122.0000,-14.0000,1384.0000,-608.0000,10649.0000,0.8472,0.4925,0.1791,0.0872,96.4500,-51.9700,-92.4900,4.7600,-8.3400,6.3800,0.0000,0.0000,-0.0000,1455.0000,1081.0000,1500.0000,1998.0000
152113.0910,2.0000,1997.0000,1125.0000,1963.0000,-62.0000,-119.0000,-9.0000,1257.0000,-711.0000,10473.0000,0.8550,0.4853,0.1647,0.0797,96.5300,-52.1600,-92.3400,5.2000,-7.7700,6.2000,0.0000,0.0000,-0.0000,1455.0000,1081.0000,1500.0000,1998.0000
152130.1960,2.0000,1997.0000,1125.0000,1963.0000,-59.0000,-109.0000,-6.0000,1293.0000,-744.0000,10158.0000,0.8621,0.4785,0.1503,0.0725,96.6200,-52.3300,-92.1900,5.5500,-7.2400,6.0000,0.0000,0.0000,-0.0000,1455.0000,1081.0000,1500.0000,1998.0000
152147.1700,2.0000,1997.0000,1113.0000,1951.0000,-52.0000,-116.0000,-5.0000,1520.0000,-908.0000,10077.0000,0.8685,0.4722,0.1359,0.0657,96.7000,-52.4900,-92.0600,5.8400,-6.7600,5.8100,0.0000,0.0000,-0.0000,1472.0000,1081.0000,1500.0000,1998.0000
152164.2300,2.0000,1997.0000,1108.0000,1946.0000,-49.0000,-119.0000,-5.0000,1614.0000,-888.0000,9956.0000,0.8743,0.4664,0.1209,0.0585,96.7000,-52.4900,-92.0600,5.8400,-6.7600,5.8100,0.0000,0.0000,-0.0000,1472.0000,1081.0000,1500.0000,1998.0000
152180.9790,2.0000,1997.0000,1108.0000,1946.0000,-52.0000,-121.0000,-6.0000,1311.0000,-590.0000,9802.0000,0.8799,0.4605,0.1054,0.0506,96.8000,-52.6400,-91.9200,6.1800,-6.2500,5.6100,0.0000,0.0000,-0.0000,1472.0000,1081.0000,1500.0000,1998.0000
152197.8430,2.0000,1997.0000,1108.0000,1946.0000,-51.0000,-121.0000,-6.0000,1223.0000,-509.0000,9844.0000,0.8852,0.4543,0.0902,0.0430,96.9200,-52.7900,-91.7800,6.6300,-5.6700,5.3800,0.0000,0.0000,-0.0000,1472.0000,1081.0000,1500.0000,1998.0000
152214.9400,2.0000,1997.0000,1108.0000,1946.0000,-54.0000,-121.0000,-8.0000,1352.0000,-575.0000,10043.0000,0.8902,0.4481,0.0743,0.0348,97.0400,-52.9300,-91.6500,6.9800,-5.1200,5.1000,0.0000,0.0000,-0.0000,1472.0000,1081.0000,1500.0000,1998.0000
152231.9070,2.0000,1997.0000,1108.0000,1946.0000,-60.0000,-125.0000,-10.0000,1319.0000,-466.0000,9950.0000,0.8952,0.4411,0.0584,0.0264,97.1700,-53.0500,-91.5300,7.2900,-4.5800,4.8000,0.0000,0.0000,-0.0000,1472.0000,1081.0000,1500.0000,1998.0000
152248.6240,2.0000,1997.0000,1080.0000,1918.0000,-63.0000,-130.0000,-13.0000,1229.0000,-449.0000,10033.0000,0.9001,0.4332,0.0428,0.0180,97.2900,-53.1600,-91.4200,7.5400,-4.0900,4.4700,0.0000,0.0000,-0.0000,1504.0000,1081.0000,1500.0000,1998.0000
152265.6100,2.0000,1997.0000,1079.0000,1917.0000,-64.0000,-130.0000,-16.0000,1328.0000,-469.0000,10112.0000,0.9049,0.4248,0.0264,0.0087,97.2900,-53.1600,-91.4200,7.5400,-4.0900,4.4700,0.0000,0.0000,-0.0000,1504.0000,1081.0000,1500.0000,1998.0000
152282.1480,2.0000,1997.0000,1079.0000,1917.0000,-59.0000,-134.0000,-17.0000,1546.0000,-684.0000,10484.0000,0.9089,0.4169,0.0103,-0.0009,97.4300,-53.2600,-91.3000,7.8000,-3.5800,4.1200,0.0000,0.0000,-0.0000,1504.0000,1081.0000,1500.0000,1998.0000
152299.1270,2.0000,1997.0000,1079.0000,1917.0000,-60.0000,-129.0000,-20.0000,1555.0000,-661.0000,10672.0000,0.9126,0.4087,-0.0060,-0.0110,97.6000,-53.3500,-91.2000,8.2000,-2.9700,3.7400,0.0000,0.0000,-0.0000,1504.0000,1081.0000,1500.0000,1998.0000
152315.8070,2.0000,1997.0000,1079.0000,1917.0000,-55.0000,-127.0000,-24.0000,1648.0000,-591.0000,10805.0000,0.9157,0.4008,-0.0214,-0.0209,97.7600,-53.4400,-91.0900,8.5400,-2.3900,3.3300,0.0000,0.0000,-0.0000,1504.0000,1081.0000,1500.0000,1998.0000
152332.8370,2.0000,1997.0000,1079.0000,1917.0000,-54.0000,-121.0000,-26.0000,1629.0000,-596.0000,10894.0000,0.9183,0.3928,-0.0366,-0.0316,97.9300,-53.5100,-91.0000,8.8100,-1.8500,2.8900,0.0000,0.0000,-0.0000,1504.0000,1081.0000,1500.0000,1998.0000
152349.6130,2.0000,1997.0000,1079.0000,1917.0000,-47.0000,-119.0000,-29.0000,1617.0000,-466.0000,10517.0000,0.9203,0.3856,-0.0505,-0.0418,98.0900,-53.5700,-90.9200,9.0100,-1.3700,2.4400,0.0000,0.0000,-0.0000,1504.0000,1081.0000,1500.0000,1998.0000
152366.3030,2.0000,1997.0000,1124.0000,1956.0000,-43.0000,-116.0000,-34.0000,1505.0000,-493.0000,10559.0000,0.9216,0.3792,-0.0642,-0.0525,98.0900,-53.5700,-90.9200,9.0100,-1.3700,2.4400,0.0000,0.0000,-0.0000,1459.0000,1084.0000,1500.0000,1998.0000
152383.1760,2.0000,1997.0000,1124.0000,1956.0000,-44.0000,-109.0000,-35.0000,1376.0000,-650.0000,10407.0000,0.9225,0.3728,-0.0770,-0.0635,98.2700,-53.6200,-90.8400,9.2000,-0.8700,1.9700,0.0000,0.0000,-0.0000,1459.0000,1084.0000,1500.0000,1998.0000
152400.1410,2.0000,1997.0000,1124.0000,1956.0000,-45.0000,-97.0000,-35.0000,1303.0000,-627.0000,9964.0000,0.9233,0.3663,-0.0886,-0.0740,98.4700,-53.6700,-90.7700,9.3700,-0.3100,1.5100,0.0000,0.0000,-0.0000,1459.0000,1084.0000,1500.0000,1998.0000
152417.1170,2.0000,1997.0000,1124.0000,1956.0000,-46.0000,-90.0000,-37.0000,1280.0000,-771.0000,9777.0000,0.9240,0.3597,-0.0986,-0.0840,98.6700,-53.7000,-90.7100,9.4900,0.1700,1.0700,0.0000,0.0000,-0.0000,1459.0000,1084.0000,1500.0000,1998.0000
152433.8250,2.0000,1997.0000,1124.0000,1956.0000,-46.0000,-84.0000,-37.0000,1082.0000,-799.0000,9273.0000,0.9246,0.3531,-0.1077,-0.0939,98.8600,-53.7300,-90.6600,9.5700,0.6100,0.6500,0.0000,0.0000,-0.0000,1459.0000,1084.0000,1500.0000,1998.0000
152450.6990,2.0000,1997.0000,1124.0000,1956.0000,-44.0000,-84.0000,-36.0000,1052.0000,-818.0000,8876.0000,0.9252,0.3462,-0.1163,-0.1034,99.0500,-53.7400,-90.6100,9.6100,0.9700,0.2700,0.0000,0.0000,-0.0000,1459.0000,1084.0000,1500.0000,1998.0000
152467.6950,2.0000,1995.0000,1336.0000,2000.0000,-41.0000,-79.0000,-33.0000,1125.0000,-737.0000,8283.0000,0.9254,0.3398,-0.1245,-0.1124,99.0500,-53.7400,-90.6100,9.6100,0.9700,0.2700,0.0000,0.0000,-0.0000,1266.0000,1104.0000,1500.0000,1996.0000
152484.4740,2.0000,1995.0000,1337.0000,2000.0000,-41.0000,-92.0000,-29.0000,1201.0000,-802.0000,8024.0000,0.9252,0.3335,-0.1342,-0.1216,99.2400,-53.7500,-90.5800,9.6600,1.3500,-0.0500,0.0000,0.0000,-0.0000,1266.0000,1104.0000,1500.0000,1996.0000
152501.3210,2.0000,1995.0000,1337.0000,2000.0000,-54.0000,-94.0000,-18.0000,1138.0000,-813.0000,8199.0000,0.9252,0.3260,-0.1446,-0.1298,99.4600,-53.7500,-90.5400,9.7500,1.8100,-0.3500,0.0000,0.0000,-0.0000,1266.0000,1104.0000,1500.0000,1996.0000
152517.9870,2.0000,1995.0000,1337.0000,2000.0000,-74.0000,-101.0000,-6.0000,1164.0000,-925.0000,8431.0000,0.9260,0.3156,-0.1556,-0.1367,99.6800,-53.7400,-90.5100,9.7900,2.2300,-0.6600,0.0000,0.0000,-0.0000,1266.0000,1104.0000,1500.0000,1996.0000
152535.0320,2.0000,1995.0000,1337.0000,2000.0000,-84.0000,-113.0000,4.0000,1288.0000,-974.0000,8545.0000,0.9271,0.3024,-0.1687,-0.1434,99.8900,-53.7200,-90.4800,9.8000,2.6200,-0.9800,0.0000,0.0000,-0.0000,1266.0000,1104.0000,1500.0000,1996.0000
152551.6240,2.0000,1996.0000,1170.0000,1992.0000,-84.0000,-121.0000,12.0000,1386.0000,-953.0000,8842.0000,0.9279,0.2885,-0.1831,-0.1491,99.8900,-53.7200,-90.4800,9.8000,2.6200,-0.9800,0.0000,0.0000,-0.0000,1484.0000,1081.0000,1500.0000,1998.0000
152568.5750,2.0000,1997.0000,1096.0000,1934.0000,-85.0000,-120.0000,18.0000,1504.0000,-761.0000,8886.0000,0.9285,0.2739,-0.1980,-0.1539,100.0900,-53.7000,-90.4700,9.7800,2.9700,-1.3400,0.0000,0.0000,-0.0000,1484.0000,1081.0000,1500.0000,1998.0000
152585.3350,2.0000,1997.0000,1096.0000,1934.0000,-84.0000,-128.0000,24.0000,1307.0000,-526.0000,8745.0000,0.9285,0.2590,-0.2138,-0.1584,100.3000,-53.6600,-90.4500,9.6600,3.3800,-1.7400,0.0000,0.0000,-0.0000,1484.0000,1081.0000,1500.0000,1998.0000
152602.3700,2.0000,1997.0000,1096.0000,1934.0000,-75.0000,-133.0000,23.0000,1436.0000,-568.0000,8888.0000,0.9279,0.2440,-0.2305,-0.1622,100.5200,-53.6100,-90.4500,9.4600,3.7800,-2.1600,0.0000,0.0000,-0.0000,1484.0000,1081.0000,1500.0000,1998.0000
152619.5010,2.0000,1997.0000,1096.0000,1934.0000,-65.0000,-139.0000,20.0000,1527.0000,-515.0000,9168.0000,0.9261,0.2305,-0.2482,-0.1661,100.7200,-53.5600,-90.4500,9.2400,4.1300,-2.6000,0.0000,0.0000,-0.0000,1484.0000,1081.0000,1500.0000,1998.0000
152636.4710,2.0000,1997.0000,1096.0000,1934.0000,-59.0000,-138.0000,18.0000,1706.0000,-494.0000,9736.0000,0.9233,0.2178,-0.2665,-0.1703,100.9100,-53.5000,-90.4600,8.9800,4.4500,-3.0700,0.0000,0.0000,-0.0000,1484.0000,1081.0000,1500.0000,1998.0000
152653.1820,2.0000,1997.0000,1096.0000,1934.0000,-56.0000,-137.0000,14.0000,1569.0000,-499.0000,10073.0000,0.9200,0.2061,-0.2840,-0.1744,100.9100,-53.5000,-90.4600,8.9800,4.4500,-3.0700,0.0000,0.0000,-0.0000,1484.0000,1081.0000,1500.0000,1998.0000
152670.0350,2.0000,1997.0000,1081.0000,1919.0000,-56.0000,-135.0000,10.0000,1489.0000,-442.0000,10117.0000,0.9162,0.1946,-0.3011,-0.1788,101.1000,-53.4400,-90.4800,8.6700,4.7200,-3.6000,0.0000,0.0000,-0.0000,1501.0000,1081.0000,1500.0000,1998.0000
152687.0570,2.0000,1997.0000,1081.0000,1919.0000,-56.0000,-127.0000,5.0000,1659.0000,-425.0000,10113.0000,0.9120,0.1830,-0.3177,-0.1840,101.2800,-53.3600,-90.5100,8.2600,5.0400,-4.1300,0.0000,0.0000,-0.0000,1501.0000,1081.0000,1500.0000,1998.0000
152703.9990,2.0000,1997.0000,1081.0000,1919.0000,-52.0000,-120.0000,0.0000,1742.0000,-462.0000,9975.0000,0.9076,0.1724,-0.3326,-0.1894,101.4600,-53.2700,-90.5600,7.7800,5.3900,-4.6600,0.0000,0.0000,-0.0000,1501.0000,1081.0000,1500.0000,1998.0000
152721.1470,2.0000,1997.0000,1081.0000,1919.0000,-52.0000,-119.0000,-6.0000,1717.0000,-226.0000,9581.0000,0.9028,0.1623,-0.3472,-0.1952,101.6300,-53.1700,-90.6100,7.3100,5.7000,-5.1800,0.0000,0.0000,-0.0000,1501.0000,1081.0000,1500.0000,1998.0000
152738.1630,2.0000,1997.0000,1081.0000,1919.0000,-50.0000,-117.0000,-12.0000,1544.0000,-247.0000,9521.0000,0.8976,0.1523,-0.3612,-0.2018,101.7800,-53.0700,-90.6700,6.8600,5.9200,-5.6600,0.0000,0.0000,-0.0000,1501.0000,1081.0000,1500.0000,1998.0000
152755.2780,2.0000,1997.0000,1090.0000,1928.0000,-47.0000,-111.0000,-17.0000,1410.0000,-335.0000,9451.0000,0.8919,0.1431,-0.3748,-0.2088,101.9100,-52.9800,-90.7500,6.4000,6.0900,-6.1200,0.0000,0.0000,-0.0000,1489.0000,1081.0000,1500.0000,1998.0000
152771.7990,2.0000,1997.0000,1091.0000,1929.0000,-50.0000,-99.0000,-21.0000,1346.0000,-257.0000,9235.0000,0.8866,0.1349,-0.3863,-0.2159,101.9100,-52.9800,-90.7500,6.4000,6.0900,-6.1200,0.0000,0.0000,-0.0000,1489.0000,1081.0000,1500.0000,1998.0000
152788.5820,2.0000,1997.0000,1091.0000,1929.0000,-55.0000,-95.0000,-24.0000,1477.0000,-432.0000,8952.0000,0.8813,0.1264,-0.3967,-0.2235,102.0500,-52.8600,-90.8300,5.9500,6.2800,-6.5500,0.0000,0.0000,-0.0000,1489.0000,1081.0000,1500.0000,1998.0000
152805.2830,2.0000,1997.0000,1091.0000,1929.0000,-45.0000,-84.0000,-26.0000,1620.0000,-544.0000,8536.0000,0.8764,0.1185,-0.4056,-0.2311,102.2000,-52.7400,-90.9300,5.5500,6.5200,-6.9700,0.0000,0.0000,-0.0000,1489.0000,1081.0000,1500.0000,1998.0000
152822.2180,2.0000,1997.0000,1091.0000,1929.0000,-43.0000,-76.0000,-31.0000,1701.0000,-604.0000,8453.0000,0.8712,0.1119,-0.4141,-0.2387,102.3300,-52.6100,-91.0300,5.1900,6.7300,-7.3600,0.0000,0.0000,-0.0000,1489.0000,1081.0000,1500.0000,1998.0000
152838.9150,2.0000,1997.0000,1091.0000,1929.0000,-38.0000,-75.0000,-35.0000,1444.0000,-634.0000,8193.0000,0.8662,0.1062,-0.4216,-0.2464,102.4500,-52.4900,-91.1400,4.8500,6.9000,-7.7000,0.0000,0.0000,-0.0000,1489.0000,1081.0000,1500.0000,1998.0000
152855.9350,2.0000,1978.0000,1461.0000,2000.0000,-38.0000,-61.0000,-35.0000,1125.0000,-496.0000,7678.0000,0.8611,0.1014,-0.4285,-0.2543,102.5700,-52.3500,-91.2600,4.5100,7.0700,-8.0100,0.0000,0.0000,-0.0000,1101.0000,1062.0000,1500.0000,1980.0000
152872.8600,2.0000,1978.0000,1461.0000,2000.0000,-39.0000,-54.0000,-34.0000,1597.0000,-624.0000,7163.0000,0.8569,0.0965,-0.4335,-0.2618,102.5700,-52.3500,-91.2600,4.5100,7.0700,-8.0100,0.0000,0.0000,-0.0000,1101.0000,1062.0000,1500.0000,1980.0000
152889.6740,2.0000,1978.0000,1461.0000,2000.0000,-35.0000,-60.0000,-34.0000,1329.0000,-724.0000,6560.0000,0.8522,0.0920,-0.4391,-0.2692,102.7000,-52.2000,-91.3900,4.2000,7.2600,-8.2800,0.0000,0.0000,-0.0000,1101.0000,1062.0000,1500.0000,1980.0000
152906.5920,2.0000,1978.0000,1461.0000,2000.0000,-40.0000,-60.0000,-29.0000,1129.0000,-518.0000,6153.0000,0.8476,0.0874,-0.4446,-0.2761,102.8200,-52.0400,-91.5300,3.9500,7.4300,-8.5200,0.0000,0.0000,-0.0000,1101.0000,1062.0000,1500.0000,1980.0000
152923.3470,2.0000,1978.0000,1461.0000,2000.0000,-61.0000,-60.0000,-21.0000,1164.0000,-473.0000,6159.0000,0.8435,0.0803,-0.4494,-0.2830,102.9300,-51.8900,-91.6600,3.7500,7.5500,-8.6800,0.0000,0.0000,-0.0000,1101.0000,1062.0000,1500.0000,1980.0000
152940.0650,2.0000,1978.0000,1461.0000,2000.0000,-76.0000,-63.0000,-9.0000,1449.0000,-718.0000,6145.0000,0.8397,0.0705,-0.4537,-0.2899,103.0300,-51.7500,-91.8000,3.5600,7.6500,-8.8300,0.0000,0.0000,-0.0000,1101.0000,1062.0000,1500.0000,1980.0000
152956.6310,2.0000,1996.0000,1202.0000,2000.0000,-91.0000,-64.0000,1.0000,1748.0000,-787.0000,5951.0000,0.8363,0.0579,-0.4577,-0.2962,103.0300,-51.7500,-91.8000,3.5600,7.6500,-8.8300,0.0000,0.0000,-0.0000,1374.0000,1077.0000,1500.0000,1997.0000
152973.2880,2.0000,1996.0000,1202.0000,2000.0000,-105.0000,-78.0000,10.0000,1565.0000,-864.0000,5973.0000,0.8327,0.0426,-0.4620,-0.3022,103.1300,-51.6100,-91.9400,3.4000,7.7600,-9.0100,0.0000,0.0000,-0.0000,1374.0000,1077.0000,1500.0000,1997.0000
152990.0450,2.0000,1996.0000,1202.0000,2000.0000,-109.0000,-90.0000,17.0000,1089.0000,-713.0000,5613.0000,0.8281,0.0249,-0.4675,-0.3083,103.2300,-51.4500,-92.0900,3.1500,7.8400,-9.2000,0.0000,0.0000,-0.0000,1374.0000,1077.0000,1500.0000,1997.0000
153006.6340,2.0000,1996.0000,1202.0000,2000.0000,-100.0000,-98.0000,19.0000,1476.0000,-716.0000,5390.0000,0.8227,0.0069,-0.4743,-0.3133,103.3300,-51.2900,-92.2400,2.8300,7.8500,-9.3300,0.0000,0.0000,-0.0000,1374.0000,1077.0000,1500.0000,1997.0000
153023.5670,2.0000,1996.0000,1202.0000,2000.0000,-87.0000,-121.0000,19.0000,1680.0000,-571.0000,5555.0000,0.8159,-0.0106,-0.4833,-0.3173,103.4200,-51.1400,-92.4000,2.5500,7.8500,-9.4700,0.0000,0.0000,-0.0000,1374.0000,1077.0000,1500.0000,1997.0000
153040.0960,2.0000,1996.0000,1202.0000,2000.0000,-76.0000,-138.0000,20.0000,1712.0000,-641.0000,6363.0000,0.8074,-0.0273,-0.4948,-0.3201,103.5000,-50.9900,-92.5500,2.2800,7.8100,-9.6400,0.0000,0.0000,-0.0000,1374.0000,1077.0000,1500.0000,1997.0000
153057.1350,2.0000,1997.0000,1035.0000,1873.0000,-74.0000,-148.0000,20.0000,1469.0000,-649.0000,7063.0000,0.7974,-0.0444,-0.5081,-0.3224,103.5000,-50.9900,-92.5500,2.2800,7.8100,-9.6400,0.0000,0.0000,-0.0000,1549.0000,1081.0000,1500.0000,1998.0000
153073.7140,2.0000,1997.0000,1034.0000,1872.0000,-76.0000,-152.0000,18.0000,1458.0000,-466.0000,7579.0000,0.7865,-0.0613,-0.5218,-0.3245,103.5800,-50.8300,-92.7200,1.8700,7.7000,-9.8400,0.0000,0.0000,-0.0000,1549.0000,1081.0000,1500.0000,1998.0000
153090.3270,2.0000,1997.0000,1034.0000,1872.0000,-69.0000,-151.0000,19.0000,1824.0000,-339.0000,8076.0000,0.7752,-0.0780,-0.5354,-0.3262,103.6500,-50.6700,-92.8900,1.3700,7.5100,-10.0600,0.0000,0.0000,-0.0000,1549.0000,1081.0000,1500.0000,1998.0000
153107.4170,2.0000,1997.0000,1034.0000,1872.0000,-48.0000,-150.0000,14.0000,1957.0000,-405.0000,8798.0000,0.7632,-0.0933,-0.5495,-0.3269,103.7100,-50.5200,-93.0800,0.8700,7.2700,-10.3100,0.0000,0.0000,-0.0000,1549.0000,1081.0000,1500.0000,1998.0000
153124.1360,2.0000,1997.0000,1034.0000,1872.0000,-44.0000,-143.0000,9.0000,1906.0000,-450.0000,9177.0000,0.7511,-0.1062,-0.5636,-0.3271,103.7500,-50.3900,-93.2600,0.3500,6.9800,-10.5800,0.0000,0.0000,-0.0000,1549.0000,1081.0000,1500.0000,1998.0000
153141.0260,2.0000,1997.0000,1034.0000,1872.0000,-37.0000,-131.0000,5.0000,1714.0000,-373.0000,8825.0000,0.7392,-0.1176,-0.5767,-0.3272,103.7800,-50.2600,-93.4500,-0.1600,6.6700,-10.8100,0.0000,0.0000,-0.0000,1549.0000,1081.0000,1500.0000,1998.0000
153157.6510,2.0000,1997.0000,1101.0000,1939.0000,-34.0000,-120.0000,3.0000,1288.0000,-422.0000,8243.0000,0.7281,-0.1276,-0.5886,-0.3273,103.7800,-50.2600,-93.4500,-0.1600,6.6700,-10.8100,0.0000,0.0000,-0.0000,1478.0000,1081.0000,1500.0000,1998.0000
153174.2590,2.0000,1997.0000,1102.0000,1940.0000,-24.0000,-112.0000,-1.0000,1371.0000,-499.0000,8057.0000,0.7178,-0.1360,-0.5992,-0.3273,103.8000,-50.1300,-93.6500,-0.6900,6.3600,-10.9800,0.0000,0.0000,-0.0000,1478.0000,1081.0000,1500.0000,1998.0000
153190.9560,2.0000,1997.0000,1102.0000,1940.0000,-16.0000,-100.0000,-3.0000,1618.0000,-509.0000,7874.0000,0.7082,-0.1428,-0.6092,-0.3271,103.8100,-50.0100,-93.8600,-1.2100,6.0800,-11.1100,0.0000,0.0000,-0.0000,1478.0000,1081.0000,1500.0000,1998.0000
153207.8890,2.0000,1997.0000,1102.0000,1940.0000,-4.0000,-84.0000,-4.0000,1664.0000,-436.0000,7623.0000,0.6996,-0.1477,-0.6183,-0.3261,103.8100,-49.8900,-94.0700,-1.6800,5.8200,-11.2200,0.0000,0.0000,-0.0000,1478.0000,1081.0000,1500.0000,1998.0000
153224.7330,2.0000,1997.0000,1102.0000,1940.0000,-1.0000,-64.0000,-7.0000,1530.0000,-352.0000,7279.0000,0.6924,-0.1508,-0.6263,-0.3249,103.8000,-49.7800,-94.2800,-2.0900,5.5800,-11.3200,0.0000,0.0000,-0.0000,1478.0000,1081.0000,1500.0000,1998.0000
153241.5580,2.0000,1997.0000,1102.0000,1940.0000,7.0000,-36.0000,-5.0000,1602.0000,-223.0000,6864.0000,0.6877,-0.1519,-0.6318,-0.3237,103.7900,-49.6800,-94.5000,-2.4400,5.3600,-11.4000,0.0000,0.0000,-0.0000,1478.0000,1081.0000,1500.0000,1998.0000
153258.3920,2.0000,1975.0000,1470.0000,2000.0000,3.0000,-26.0000,-7.0000,1374.0000,-258.0000,5815.0000,0.6852,-0.1517,-0.6351,-0.3228,103.7900,-49.6800,-94.5000,-2.4400,5.3600,-11.4000,0.0000,0.0000,-0.0000,1092.0000,1062.0000,1500.0000,1977.0000
153275.3330,2.0000,1975.0000,1470.0000,2000.0000,-2.0000,-19.0000,-6.0000,1729.0000,-334.0000,5168.0000,0.6830,-0.1516,-0.6377,-0.3225,103.7700,-49.5700,-94.7200,-2.7100,5.2900,-11.4600,0.0000,0.0000,-0.0000,1092.0000,1062.0000,1500.0000,1977.0000
153292.1760,2.0000,1975.0000,1470.0000,2000.0000,-8.0000,-14.0000,-7.0000,1960.0000,-467.0000,5143.0000,0.6810,-0.1521,-0.6394,-0.3228,103.7500,-49.4400,-94.9600,-2.9300,5.3700,-11.5200,0.0000,0.0000,-0.0000,1092.0000,1062.0000,1500.0000,1977.0000
153308.7970,2.0000,1975.0000,1470.0000,2000.0000,-27.0000,-6.0000,-6.0000,1957.0000,-213.0000,4731.0000,0.6795,-0.1533,-0.6399,-0.3245,103.7200,-49.3200,-95.2000,-3.1100,5.4600,-11.5900,0.0000,0.0000,-0.0000,1092.0000,1062.0000,1500.0000,1977.0000
153325.6920,2.0000,1975.0000,1470.0000,2000.0000,-53.0000,-1.0000,-6.0000,1430.0000,-257.0000,3888.0000,0.6780,-0.1567,-0.6386,-0.3285,103.7000,-49.2100,-95.4300,-3.2200,5.5500,-11.6500,0.0000,0.0000,-0.0000,1092.0000,1062.0000,1500.0000,1977.0000
153342.4110,2.0000,1975.0000,1470.0000,2000.0000,-76.0000,-16.0000,-4.0000,1409.0000,-200.0000,3013.0000,0.6763,-0.1624,-0.6358,-0.3347,103.6800,-49.0900,-95.6700,-3.2400,5.7000,-11.6600,0.0000,0.0000,-0.0000,1092.0000,1062.0000,1500.0000,1977.0000
153359.5100,2.0000,1996.0000,1137.0000,1977.0000,-100.0000,-35.0000,-4.0000,1645.0000,-117.0000,2703.0000,0.6722,-0.1715,-0.6334,-0.3429,103.6800,-49.0900,-95.6700,-3.2400,5.7000,-11.6600,0.0000,0.0000,-0.0000,1442.0000,1080.0000,1500.0000,1998.0000
153376.4940,2.0000,1997.0000,1137.0000,1977.0000,-121.0000,-46.0000,-7.0000,1262.0000,60.0000,2486.0000,0.6657,-0.1836,-0.6314,-0.3528,103.6400,-48.9600,-95.9200,-3.3300,5.7600,-11.6800,0.0000,0.0000,-0.0000,1442.0000,1080.0000,1500.0000,1998.0000
153393.2720,2.0000,1997.0000,1137.0000,1977.0000,-132.0000,-64.0000,-10.0000,1179.0000,153.0000,2127.0000,0.6569,-0.1978,-0.6301,-0.3638,103.6100,-48.8300,-96.1800,-3.4500,5.7600,-11.7000,0.0000,0.0000,-0.0000,1442.0000,1080.0000,1500.0000,1998.0000
153410.0440,2.0000,1997.0000,1137.0000,1977.0000,-129.0000,-85.0000,-14.0000,1330.0000,-1.0000,2074.0000,0.6455,-0.2130,-0.6307,-0.3745,103.5700,-48.7100,-96.4400,-3.5300,5.7600,-11.6800,0.0000,0.0000,-0.0000,1442.0000,1080.0000,1500.0000,1998.0000
153427.0870,2.0000,1997.0000,1137.0000,1977.0000,-118.0000,-103.0000,-21.0000,1654.0000,-29.0000,2253.0000,0.6318,-0.2282,-0.6334,-0.3842,103.5300,-48.5900,-96.6900,-3.5900,5.7600,-11.6600,0.0000,0.0000,-0.0000,1442.0000,1080.0000,1500.0000,1998.0000
153444.1320,2.0000,1997.0000,1137.0000,1977.0000,-104.0000,-141.0000,-30.0000,1384.0000,-207.0000,2730.0000,0.6150,-0.2427,-0.6395,-0.3924,103.5000,-48.4800,-96.9400,-3.6700,5.7400,-11.6600,0.0000,0.0000,-0.0000,1442.0000,1080.0000,1500.0000,1998.0000
153460.9020,2.0000,1997.0000,1026.0000,1864.0000,-92.0000,-155.0000,-33.0000,865.0000,-131.0000,3186.0000,0.5961,-0.2562,-0.6481,-0.3987,103.5000,-48.4800,-96.9400,-3.6700,5.7400,-11.6600,0.0000,0.0000,-0.0000,1569.0000,1081.0000,1500.0000,1998.0000
153477.5620,2.0000,1997.0000,1014.0000,1852.0000,-87.0000,-166.0000,-35.0000,1344.0000,-266.0000,4349.0000,0.5755,-0.2695,-0.6584,-0.4034,103.4500,-48.3600,-97.2100,-3.8300,5.6100,-11.5900,0.0000,0.0000,-0.0000,1569.0000,1081.0000,1500.0000,1998.0000
153494.6610,2.0000,1997.0000,1014.0000,1852.0000,-72.0000,-173.0000,-38.0000,2059.0000,-529.0000,5699.0000,0.5537,-0.2821,-0.6695,-0.4068,103.3900,-48.2400,-97.4700,-4.0700,5.3700,-11.5100,0.0000,0.0000,-0.0000,1569.0000,1081.0000,1500.0000,1998.0000
153511.6890,2.0000,1997.0000,1014.0000,1852.0000,-50.0000,-180.0000,-43.0000,2060.0000,-636.0000,6617.0000,0.5313,-0.2930,-0.6822,-0.4080,103.3300,-48.1300,-97.7200,-4.3800,5.0200,-11.4400,0.0000,0.0000,-0.0000,1569.0000,1081.0000,1500.0000,1998.0000
153528.7700,2.0000,1997.0000,1014.0000,1852.0000,-29.0000,-181.0000,-44.0000,1916.0000,-600.0000,7094.0000,0.5089,-0.3017,-0.6960,-0.4068,103.2600,-48.0300,-97.9700,-4.7100,4.6100,-11.3400,0.0000,0.0000,-0.0000,1569.0000,1081.0000,1500.0000,1998.0000
153545.6300,2.0000,1997.0000,1014.0000,1852.0000,-17.0000,-169.0000,-44.0000,2043.0000,-586.0000,7555.0000,0.4876,-0.3086,-0.7098,-0.4040,103.1900,-47.9500,-98.2100,-5.0200,4.1600,-11.1900,0.0000,0.0000,-0.0000,1569.0000,1081.0000,1500.0000,1998.0000
153562.3900,2.0000,1997.0000,1024.0000,1862.0000,-8.0000,-159.0000,-43.0000,2011.0000,-562.0000,7721.0000,0.4676,-0.3137,-0.7229,-0.4003,103.1900,-47.9500,-98.2100,-5.0200,4.1600,-11.1900,0.0000,0.0000,-0.0000,1559.0000,1081.0000,1500.0000,1998.0000
153579.1840,2.0000,1997.0000,1024.0000,1862.0000,-9.0000,-144.0000,-39.0000,1943.0000,-753.0000,7769.0000,0.4490,-0.3180,-0.7349,-0.3965,103.1000,-47.8700,-98.4500,-5.4100,3.6600,-11.0000,0.0000,0.0000,-0.0000,1559.0000,1081.0000,1500.0000,1998.0000
153595.9210,2.0000,1997.0000,1024.0000,1862.0000,-6.0000,-121.0000,-35.0000,1674.0000,-718.0000,7304.0000,0.4329,-0.3211,-0.7451,-0.3928,103.0000,-47.7900,-98.6900,-5.8000,3.1700,-10.7700,0.0000,0.0000,-0.0000,1559.0000,1081.0000,1500.0000,1998.0000
153612.8330,2.0000,1997.0000,1024.0000,1862.0000,-4.0000,-107.0000,-31.0000,1669.0000,-693.0000,7051.0000,0.4185,-0.3235,-0.7540,-0.3896,102.8900,-47.7300,-98.9200,-6.1100,2.7700,-10.5000,0.0000,0.0000,-0.0000,1559.0000,1081.0000,1500.0000,1998.0000
153629.8680,2.0000,1997.0000,1024.0000,1862.0000,7.0000,-96.0000,-31.0000,1706.0000,-763.0000,6639.0000,0.4059,-0.3248,-0.7622,-0.3858,102.7800,-47.6800,-99.1500,-6.3800,2.4200,-10.2300,0.0000,0.0000,-0.0000,1559.0000,1081.0000,1500.0000,1998.0000
153646.7510,2.0000,1997.0000,1024.0000,1862.0000,5.0000,-67.0000,-22.0000,1904.0000,-815.0000,6005.0000,0.3965,-0.3250,-0.7687,-0.3825,102.7800,-47.6800,-99.1500,-6.3800,2.4200,-10.2300,0.0000,0.0000,-0.0000,1559.0000,1081.0000,1500.0000,1998.0000
153663.6180,2.0000,1997.0000,1157.0000,1997.0000,9.0000,-51.0000,-19.0000,1832.0000,-555.0000,5164.0000,0.3892,-0.3249,-0.7738,-0.3798,102.6800,-47.6400,-99.3700,-6.6000,2.1500,-9.9600,0.0000,0.0000,-0.0000,1422.0000,1080.0000,1500.0000,1998.0000
153680.6960,2.0000,1997.0000,1157.0000,1997.0000,10.0000,-55.0000,-19.0000,1925.0000,-467.0000,4456.0000,0.3827,-0.3245,-0.7786,-0.3768,102.5500,-47.5900,-99.6000,-6.7700,1.9400,-9.7500,0.0000,0.0000,-0.0000,1422.0000,1080.0000,1500.0000,1998.0000
153697.5340,2.0000,1997.0000,1157.0000,1997.0000,4.0000,-57.0000,-17.0000,1878.0000,-436.0000,3867.0000,0.3764,-0.3241,-0.7831,-0.3742,102.4300,-47.5400,-99.8200,-6.8700,1.8000,-9.5700,0.0000,0.0000,-0.0000,1422.0000,1080.0000,1500.0000,1998.0000
153714.4420,2.0000,1997.0000,1157.0000,1997.0000,-4.0000,-56.0000,-13.0000,1998.0000,-454.0000,3366.0000,0.3693,-0.3248,-0.7872,-0.3719,102.3100,-47.4900,-100.0500,-6.9100,1.7300,-9.4000,0.0000,0.0000,-0.0000,1422.0000,1080.0000,1500.0000,1998.0000
153731.4710,2.0000,1997.0000,1157.0000,1997.0000,-1.0000,-69.0000,-15.0000,1864.0000,-427.0000,3021.0000,0.3616,-0.3261,-0.7914,-0.3697,102.2000,-47.4500,-100.2700,-6.9300,1.7200,-9.2500,0.0000,0.0000,-0.0000,1422.0000,1080.0000,1500.0000,1998.0000
153748.1820,2.0000,1997.0000,1157.0000,1997.0000,-6.0000,-85.0000,-15.0000,1818.0000,-406.0000,2817.0000,0.3518,-0.3281,-0.7964,-0.3666,102.2000,-47.4500,-100.2700,-6.9300,1.7200,-9.2500,0.0000,0.0000,-0.0000,1422.0000,1080.0000,1500.0000,1998.0000
153764.6600,2.0000,1997.0000,1159.0000,2000.0000,-8.0000,-101.0000,-14.0000,1875.0000,-366.0000,2837.0000,0.3403,-0.3310,-0.8016,-0.3634,102.0900,-47.4100,-100.4800,-6.9100,1.7400,-9.0900,0.0000,0.0000,-0.0000,1419.0000,1079.0000,1500.0000,1998.0000
153781.7580,2.0000,1997.0000,1159.0000,2000.0000,-17.0000,-117.0000,-15.0000,1764.0000,-242.0000,2824.0000,0.3261,-0.3352,-0.8073,-0.3599,101.9700,-47.3600,-100.7000,-6.9300,1.6600,-8.9400,0.0000,0.0000,-0.0000,1419.0000,1079.0000,1500.0000,1998.0000
153798.5030,2.0000,1997.0000,1159.0000,2000.0000,-28.0000,-129.0000,-14.0000,1814.0000,-114.0000,2898.0000,0.3100,-0.3404,-0.8128,-0.3571,101.8400,-47.3100,-100.9200,-6.9400,1.5400,-8.7700,0.0000,0.0000,-0.0000,1419.0000,1079.0000,1500.0000,1998.0000
153815.2790,2.0000,1997.0000,1159.0000,2000.0000,-32.0000,-152.0000,-17.0000,1805.0000,-335.0000,3296.0000,0.2911,-0.3466,-0.8184,-0.3540,101.7200,-47.2700,-101.1300,-6.9300,1.4100,-8.5900,0.0000,0.0000,-0.0000,1419.0000,1079.0000,1500.0000,1998.0000
153832.0960,2.0000,1997.0000,1159.0000,2000.0000,-38.0000,-159.0000,-19.0000,1484.0000,-316.0000,3492.0000,0.2697,-0.3534,-0.8242,-0.3508,101.6100,-47.2300,-101.3400,-6.9300,1.2800,-8.3400,0.0000,0.0000,-0.0000,1419.0000,1079.0000,1500.0000,1998.0000
153849.1420,2.0000,1997.0000,1076.0000,1914.0000,-43.0000,-166.0000,-19.0000,1698.0000,-237.0000,3942.0000,0.2468,-0.3606,-0.8295,-0.3477,101.6100,-47.2300,-101.3400,-6.9300,1.2800,-8.3400,0.0000,0.0000,-0.0000,1508.0000,1081.0000,1500.0000,1998.0000
153865.7970,2.0000,1997.0000,1075.0000,1913.0000,-49.0000,-172.0000,-21.0000,1569.0000,-327.0000,4505.0000,0.2228,-0.3678,-0.8344,-0.3448,101.5000,-47.2000,-101.5400,-6.9000,1.1300,-8.0700,0.0000,0.0000,-0.0000,1508.0000,1081.0000,1500.0000,1998.0000
153882.5290,2.0000,1997.0000,1075.0000,1913.0000,-54.0000,-174.0000,-21.0000,1928.0000,-322.0000,4979.0000,0.1979,-0.3750,-0.8385,-0.3421,101.3700,-47.1700,-101.7400,-7.0300,0.7300,-7.7300,0.0000,0.0000,-0.0000,1508.0000,1081.0000,1500.0000,1998.0000
153899.4850,2.0000,1997.0000,1075.0000,1913.0000,-49.0000,-188.0000,-22.0000,2417.0000,-495.0000,5367.0000,0.1718,-0.3823,-0.8423,-0.3390,101.2300,-47.1600,-101.9300,-7.1700,0.2600,-7.3400,0.0000,0.0000,-0.0000,1508.0000,1081.0000,1500.0000,1998.0000
153916.1790,2.0000,1997.0000,1075.0000,1913.0000,-45.0000,-189.0000,-23.0000,2438.0000,-692.0000,5822.0000,0.1451,-0.3891,-0.8460,-0.3344,101.0900,-47.1600,-102.1100,-7.3200,-0.1900,-6.9000,0.0000,0.0000,-0.0000,1508.0000,1081.0000,1500.0000,1998.0000
153933.1310,2.0000,1997.0000,1075.0000,1913.0000,-42.0000,-187.0000,-25.0000,2362.0000,-604.0000,6046.0000,0.1180,-0.3956,-0.8492,-0.3292,100.9600,-47.1700,-102.2700,-7.4300,-0.6300,-6.4000,0.0000,0.0000,-0.0000,1508.0000,1081.0000,1500.0000,1998.0000
153949.7570,2.0000,1997.0000,1075.0000,1913.0000,-37.0000,-182.0000,-25.0000,2107.0000,-553.0000,6136.0000,0.0925,-0.4013,-0.8517,-0.3240,100.9600,-47.1700,-102.2700,-7.4300,-0.6300,-6.4000,0.0000,0.0000,-0.0000,1508.0000,1081.0000,1500.0000,1998.0000
153966.6280,2.0000,1997.0000,1094.0000,1932.0000,-37.0000,-171.0000,-25.0000,1736.0000,-425.0000,6202.0000,0.0669,-0.4063,-0.8540,-0.3181,100.8300,-47.1800,-102.4300,-7.4800,-1.0300,-5.8700,0.0000,0.0000,-0.0000,1486.0000,1081.0000,1500.0000,1998.0000
153983.6810,2.0000,1997.0000,1094.0000,1932.0000,-35.0000,-157.0000,-20.0000,2067.0000,-752.0000,6675.0000,0.0431,-0.4107,-0.8552,-0.3133,100.6700,-47.2200,-102.5800,-7.6100,-1.5700,-5.2900,0.0000,0.0000,-0.0000,1486.0000,1081.0000,1500.0000,1998.0000
154000.6490,2.0000,1997.0000,1094.0000,1932.0000,-31.0000,-140.0000,-20.0000,1680.0000,-833.0000,6411.0000,0.0212,-0.4146,-0.8560,-0.3083,100.5000,-47.2700,-102.7200,-7.7400,-2.0900,-4.6900,0.0000,0.0000,-0.0000,1486.0000,1081.0000,1500.0000,1998.0000
154017.7540,2.0000,1997.0000,1094.0000,1932.0000,-25.0000,-126.0000,-19.0000,1762.0000,-532.0000,5902.0000,0.0020,-0.4175,-0.8564,-0.3038,100.3500,-47.3200,-102.8400,-7.8200,-2.5200,-4.0800,0.0000,0.0000,-0.0000,1486.0000,1081.0000,1500.0000,1998.0000
154034.7060,2.0000,1997.0000,1094.0000,1932.0000,-21.0000,-113.0000,-19.0000,1789.0000,-325.0000,5573.0000,-0.0153,-0.4200,-0.8566,-0.2992,100.2000,-47.3800,-102.9600,-7.8500,-2.8800,-3.5200,0.0000,0.0000,-0.0000,1486.0000,1081.0000,1500.0000,1998.0000
154051.5290,2.0000,1997.0000,1094.0000,1932.0000,-13.0000,-93.0000,-15.0000,1753.0000,-231.0000,5042.0000,-0.0300,-0.4219,-0.8568,-0.2948,100.2000,-47.3800,-102.9600,-7.8500,-2.8800,-3.5200,0.0000,0.0000,-0.0000,1486.0000,1081.0000,1500.0000,1998.0000
154068.2170,2.0000,1994.0000,1301.0000,2000.0000,-10.0000,-91.0000,-16.0000,1807.0000,-229.0000,4659.0000,-0.0424,-0.4234,-0.8570,-0.2908,100.0500,-47.4400,-103.0600,-7.8600,-3.1800,-3.0200,0.0000,0.0000,-0.0000,1269.0000,1071.0000,1500.0000,1995.0000
154085.1440,2.0000,1994.0000,1301.0000,2000.0000,-13.0000,-77.0000,-11.0000,1839.0000,-346.0000,4283.0000,-0.0539,-0.4247,-0.8570,-0.2869,99.8800,-47.5300,-103.1700,-7.9400,-3.5700,-2.5400,0.0000,0.0000,-0.0000,1269.0000,1071.0000,1500.0000,1995.0000
154102.1440,2.0000,1994.0000,1301.0000,2000.0000,-29.0000,-68.0000,-9.0000,1878.0000,-350.0000,4103.0000,-0.0650,-0.4258,-0.8564,-0.2846,99.7000,-47.6100,-103.2600,-8.0200,-3.9100,-2.0900,0.0000,0.0000,-0.0000,1269.0000,1071.0000,1500.0000,1995.0000
154118.9590,2.0000,1994.0000,1301.0000,2000.0000,-42.0000,-64.0000,-7.0000,2124.0000,-252.0000,3753.0000,-0.0753,-0.4266,-0.8549,-0.2854,99.5300,-47.7100,-103.3500,-8.0900,-4.2100,-1.6600,0.0000,0.0000,-0.0000,1269.0000,1071.0000,1500.0000,1995.0000
154135.9020,2.0000,1994.0000,1301.0000,2000.0000,-50.0000,-67.0000,-7.0000,1761.0000,-208.0000,3221.0000,-0.0866,-0.4276,-0.8528,-0.2871,99.3600,-47.8000,-103.4300,-8.1600,-4.4700,-1.2800,0.0000,0.0000,-0.0000,1269.0000,1071.0000,1500.0000,1995.0000
154152.9440,2.0000,1994.0000,1271.0000,2000.0000,-60.0000,-78.0000,-7.0000,1687.0000,-165.0000,2883.0000,-0.0993,-0.4287,-0.8500,-0.2897,99.3600,-47.8000,-103.4300,-8.1600,-4.4700,-1.2800,0.0000,0.0000,-0.0000,1304.0000,1073.0000,1500.0000,1996.0000
154169.7110,2.0000,1995.0000,1268.0000,2000.0000,-70.0000,-96.0000,-10.0000,1869.0000,-70.0000,2751.0000,-0.1146,-0.4301,-0.8465,-0.2922,99.2000,-47.8900,-103.5100,-8.2000,-4.6500,-0.9500,0.0000,0.0000,-0.0000,1304.0000,1073.0000,1500.0000,1996.0000
154186.4140,2.0000,1995.0000,1268.0000,2000.0000,-77.0000,-116.0000,-13.0000,1578.0000,-204.0000,2908.0000,-0.1331,-0.4318,-0.8422,-0.2941,99.0100,-48.0100,-103.5800,-8.2600,-5.0000,-0.6400,0.0000,0.0000,-0.0000,1304.0000,1073.0000,1500.0000,1996.0000
154203.4630,2.0000,1995.0000,1268.0000,2000.0000,-81.0000,-128.0000,-12.0000,1679.0000,-303.0000,3282.0000,-0.1538,-0.4337,-0.8371,-0.2960,98.8200,-48.1300,-103.6600,-8.2900,-5.3400,-0.3100,0.0000,0.0000,-0.0000,1304.0000,1073.0000,1500.0000,1996.0000
154220.3280,2.0000,1995.0000,1268.0000,2000.0000,-83.0000,-140.0000,-17.0000,1791.0000,-70.0000,3515.0000,-0.1758,-0.4354,-0.8314,-0.2973,98.6400,-48.2600,-103.7200,-8.2800,-5.6300,0.0500,0.0000,0.0000,-0.0000,1304.0000,1073.0000,1500.0000,1996.0000
154237.1500,2.0000,1995.0000,1268.0000,2000.0000,-85.0000,-149.0000,-19.0000,2128.0000,-368.0000,4297.0000,-0.1998,-0.4371,-0.8249,-0.2977,98.4600,-48.3800,-103.7800,-8.2300,-5.9300,0.4700,0.0000,0.0000,-0.0000,1304.0000,1073.0000,1500.0000,1996.0000
154253.8200,2.0000,1997.0000,1111.0000,1949.0000,-86.0000,-167.0000,-21.0000,2105.0000,-373.0000,4760.0000,-0.2249,-0.4386,-0.8176,-0.2974,98.4600,-48.3800,-103.7800,-8.2300,-5.9300,0.4700,0.0000,0.0000,-0.0000,1469.0000,1081.0000,1500.0000,1998.0000
154270.4590,2.0000,1997.0000,1111.0000,1949.0000,-82.0000,-173.0000,-25.0000,1858.0000,-420.0000,5108.0000,-0.2509,-0.4400,-0.8097,-0.2962,98.3000,-48.5000,-103.8200,-8.1300,-6.2100,0.9500,0.0000,0.0000,-0.0000,1469.0000,1081.0000,1500.0000,1998.0000
154287.5200,2.0000,1997.0000,1111.0000,1949.0000,-68.0000,-177.0000,-30.0000,1772.0000,-362.0000,5467.0000,-0.2782,-0.4414,-0.8014,-0.2923,98.1500,-48.6200,-103.8500,-7.9600,-6.4300,1.4700,0.0000,0.0000,-0.0000,1469.0000,1081.0000,1500.0000,1998.0000
154304.5400,2.0000,1997.0000,1111.0000,1949.0000,-62.0000,-180.0000,-31.0000,2038.0000,-221.0000,6067.0000,-0.3048,-0.4424,-0.7931,-0.2870,98.0100,-48.7400,-103.8700,-7.7400,-6.6100,2.0100,0.0000,0.0000,-0.0000,1469.0000,1081.0000,1500.0000,1998.0000
154321.4060,2.0000,1997.0000,1111.0000,1949.0000,-58.0000,-185.0000,-34.0000,2091.0000,-273.0000,6546.0000,-0.3311,-0.4429,-0.7845,-0.2807,97.8800,-48.8600,-103.8700,-7.4600,-6.7900,2.5800,0.0000,0.0000,-0.0000,1469.0000,1081.0000,1500.0000,1998.0000
154338.3420,2.0000,1997.0000,1111.0000,1949.0000,-56.0000,-183.0000,-34.0000,2052.0000,-456.0000,6920.0000,-0.3575,-0.4439,-0.7749,-0.2734,97.7600,-48.9700,-103.8600,-7.1400,-6.9400,3.1900,0.0000,0.0000,-0.0000,1469.0000,1081.0000,1500.0000,1998.0000
154355.5650,2.0000,1996.0000,1239.0000,2000.0000,-54.0000,-183.0000,-34.0000,1608.0000,-438.0000,6948.0000,-0.3838,-0.4443,-0.7647,-0.2655,97.7600,-48.9700,-103.8600,-7.1400,-6.9400,3.1900,0.0000,0.0000,-0.0000,1335.0000,1075.0000,1500.0000,1997.0000
154372.5200,2.0000,1996.0000,1239.0000,2000.0000,-58.0000,-173.0000,-33.0000,2001.0000,-527.0000,7577.0000,-0.4087,-0.4440,-0.7544,-0.2583,97.6600,-49.0900,-103.8300,-6.7800,-7.0100,3.7900,0.0000,0.0000,-0.0000,1335.0000,1075.0000,1500.0000,1997.0000
154389.5310,2.0000,1996.0000,1239.0000,2000.0000,-59.0000,-168.0000,-34.0000,1928.0000,-504.0000,7823.0000,-0.4328,-0.4429,-0.7438,-0.2515,97.5600,-49.2000,-103.8000,-6.3900,-7.0500,4.3900,0.0000,0.0000,-0.0000,1335.0000,1075.0000,1500.0000,1997.0000
154406.1270,2.0000,1996.0000,1239.0000,2000.0000,-66.0000,-150.0000,-31.0000,1932.0000,-571.0000,8161.0000,-0.4551,-0.4409,-0.7335,-0.2460,97.4800,-49.3100,-103.7500,-5.9700,-7.0600,5.0000,0.0000,0.0000,-0.0000,1335.0000,1075.0000,1500.0000,1997.0000
154423.2330,2.0000,1996.0000,1239.0000,2000.0000,-67.0000,-138.0000,-27.0000,1847.0000,-585.0000,8263.0000,-0.4762,-0.4381,-0.7231,-0.2417,97.4000,-49.4100,-103.6800,-5.5100,-7.0300,5.6000,0.0000,0.0000,-0.0000,1335.0000,1075.0000,1500.0000,1997.0000
154439.8350,2.0000,1996.0000,1239.0000,2000.0000,-70.0000,-118.0000,-22.0000,1775.0000,-816.0000,8311.0000,-0.4946,-0.4353,-0.7133,-0.2391,97.3400,-49.5100,-103.6100,-5.0700,-6.9500,6.1800,0.0000,0.0000,-0.0000,1335.0000,1075.0000,1500.0000,1997.0000
154456.6700,2.0000,1977.0000,1473.0000,2000.0000,-63.0000,-91.0000,-17.0000,1722.0000,-587.0000,7682.0000,-0.5104,-0.4321,-0.7045,-0.2378,97.3400,-49.5100,-103.6100,-5.0700,-6.9500,6.1800,0.0000,0.0000,-0.0000,1097.0000,1071.0000,1500.0000,1979.0000
154473.4790,2.0000,1977.0000,1474.0000,2000.0000,-62.0000,-74.0000,-12.0000,1768.0000,-466.0000,7101.0000,-0.5234,-0.4288,-0.6968,-0.2378,97.2900,-49.6000,-103.5300,-4.6600,-6.8600,6.7000,0.0000,0.0000,-0.0000,1097.0000,1071.0000,1500.0000,1979.0000
154490.4790,2.0000,1977.0000,1474.0000,2000.0000,-64.0000,-58.0000,-10.0000,1452.0000,-383.0000,6597.0000,-0.5347,-0.4254,-0.6899,-0.2391,97.2500,-49.6800,-103.4400,-4.3300,-6.7700,7.1600,0.0000,0.0000,-0.0000,1097.0000,1071.0000,1500.0000,1979.0000
154507.4270,2.0000,1977.0000,1474.0000,2000.0000,-71.0000,-35.0000,-4.0000,1367.0000,-239.0000,6031.0000,-0.5437,-0.4210,-0.6844,-0.2423,97.2200,-49.7700,-103.3400,-4.0700,-6.6700,7.5600,0.0000,0.0000,-0.0000,1097.0000,1071.0000,1500.0000,1979.0000
154524.4360,2.0000,1977.0000,1474.0000,2000.0000,-79.0000,-5.0000,3.0000,1289.0000,-240.0000,5356.0000,-0.5508,-0.4157,-0.6798,-0.2482,97.1900,-49.8400,-103.2400,-3.8800,-6.5800,7.9000,0.0000,0.0000,-0.0000,1097.0000,1071.0000,1500.0000,1979.0000
154541.3160,2.0000,1977.0000,1474.0000,2000.0000,-81.0000,-12.0000,4.0000,1177.0000,25.0000,4140.0000,-0.5564,-0.4100,-0.6759,-0.2559,97.1700,-49.9100,-103.1400,-3.8000,-6.5000,8.1700,0.0000,0.0000,-0.0000,1097.0000,1071.0000,1500.0000,1979.0000
154558.1800,2.0000,1985.0000,1433.0000,2000.0000,-87.0000,-16.0000,4.0000,1414.0000,-72.0000,3611.0000,-0.5625,-0.4042,-0.6713,-0.2637,97.1700,-49.9100,-103.1400,-3.8000,-6.5000,8.1700,0.0000,0.0000,-0.0000,1139.0000,1072.0000,1500.0000,1987.0000
154574.9020,2.0000,1985.0000,1433.0000,2000.0000,-97.0000,-24.0000,0.0000,1364.0000,-98.0000,3312.0000,-0.5699,-0.3980,-0.6657,-0.2714,97.1500,-49.9700,-103.0300,-3.8100,-6.4500,8.4100,0.0000,0.0000,-0.0000,1139.0000,1072.0000,1500.0000,1987.0000
154592.1600,2.0000,1985.0000,1433.0000,2000.0000,-108.0000,-48.0000,-4.0000,1142.0000,-94.0000,3114.0000,-0.5796,-0.3907,-0.6584,-0.2791,97.1400,-50.0300,-102.9200,-3.8700,-6.4100,8.6500,0.0000,0.0000,-0.0000,1139.0000,1072.0000,1500.0000,1987.0000
154609.1710,2.0000,1985.0000,1433.0000,2000.0000,-125.0000,-68.0000,-8.0000,1269.0000,52.0000,3131.0000,-0.5924,-0.3828,-0.6485,-0.2863,97.1200,-50.0800,-102.8100,-3.9400,-6.3600,8.8500,0.0000,0.0000,-0.0000,1139.0000,1072.0000,1500.0000,1987.0000
154626.0530,2.0000,1985.0000,1433.0000,2000.0000,-142.0000,-79.0000,-11.0000,1045.0000,-8.0000,3428.0000,-0.6073,-0.3735,-0.6367,-0.2937,97.1000,-50.1300,-102.7000,-4.0000,-6.3200,9.0400,0.0000,0.0000,-0.0000,1139.0000,1072.0000,1500.0000,1987.0000
154642.7620,2.0000,1985.0000,1433.0000,2000.0000,-152.0000,-95.0000,-16.0000,811.0000,10.0000,3862.0000,-0.6239,-0.3631,-0.6231,-0.3011,97.0800,-50.1800,-102.5800,-4.0100,-6.2600,9.2100,0.0000,0.0000,-0.0000,1139.0000,1072.0000,1500.0000,1987.0000
154659.8070,2.0000,1997.0000,1111.0000,1947.0000,-158.0000,-110.0000,-21.0000,1008.0000,-43.0000,4644.0000,-0.6426,-0.3517,-0.6071,-0.3079,97.0800,-50.1800,-102.5800,-4.0100,-6.2600,9.2100,0.0000,0.0000,-0.0000,1470.0000,1082.0000,1500.0000,1998.0000
154676.6060,2.0000,1997.0000,1111.0000,1947.0000,-160.0000,-120.0000,-26.0000,1368.0000,-99.0000,5486.0000,-0.6618,-0.3398,-0.5900,-0.3137,97.0700,-50.2200,-102.4500,-3.9500,-6.1900,9.3600,0.0000,0.0000,-0.0000,1470.0000,1082.0000,1500.0000,1998.0000
154693.6500,2.0000,1997.0000,1111.0000,1947.0000,-147.0000,-130.0000,-31.0000,1601.0000,-246.0000,6136.0000,-0.6816,-0.3279,-0.5716,-0.3181,96.8900,-50.4700,-102.3100,-3.5500,-6.9400,9.5600,0.0000,0.0000,-0.0000,1470.0000,1082.0000,1500.0000,1998.0000
154710.5870,2.0000,1997.0000,1111.0000,1947.0000,-126.0000,-139.0000,-38.0000,1387.0000,-189.0000,6408.0000,-0.7009,-0.3173,-0.5532,-0.3195,96.7300,-50.7300,-102.1600,-3.0700,-7.6300,9.7600,0.0000,0.0000,-0.0000,1470.0000,1082.0000,1500.0000,1998.0000
154727.5330,2.0000,1997.0000,1111.0000,1947.0000,-93.0000,-154.0000,-46.0000,1308.0000,-220.0000,6922.0000,-0.7196,-0.3094,-0.5347,-0.3171,96.5800,-50.9800,-102.0000,-2.5800,-8.2100,9.9100,0.0000,0.0000,-0.0000,1470.0000,1082.0000,1500.0000,1998.0000
154744.3440,2.0000,1997.0000,1111.0000,1947.0000,-69.0000,-163.0000,-50.0000,1425.0000,-545.0000,7915.0000,-0.7378,-0.3044,-0.5160,-0.3109,96.4600,-51.2400,-101.8400,-2.0500,-8.6700,10.0100,0.0000,0.0000,-0.0000,1470.0000,1082.0000,1500.0000,1998.0000
154761.4830,2.0000,1987.0000,2000.0000,1649.0000,-53.0000,-164.0000,-50.0000,1582.0000,-835.0000,9023.0000,-0.7552,-0.3015,-0.4972,-0.3025,96.4600,-51.2400,-101.8400,-2.0500,-8.6700,10.0100,0.0000,0.0000,-0.0000,1090.0000,1762.0000,1500.0000,1989.0000
154778.5490,2.0000,1987.0000,2000.0000,1649.0000,-38.0000,-158.0000,-47.0000,1496.0000,-578.0000,9477.0000,-0.7709,-0.2998,-0.4793,-0.2932,96.3500,-51.4900,-101.6700,-1.4400,-9.0300,10.0800,0.0000,0.0000,-0.0000,1090.0000,1762.0000,1500.0000,1989.0000
154795.2320,2.0000,1987.0000,2000.0000,1649.0000,-30.0000,-151.0000,-43.0000,1486.0000,-644.0000,10303.0000,-0.7850,-0.2991,-0.4623,-0.2840,96.2600,-51.7700,-101.4800,-0.6900,-9.3000,10.0800,0.0000,0.0000,-0.0000,1090.0000,1762.0000,1500.0000,1989.0000
154812.0680,2.0000,1987.0000,2000.0000,1649.0000,-30.0000,-121.0000,-38.0000,1514.0000,-790.0000,10928.0000,-0.7969,-0.2982,-0.4472,-0.2757,96.1800,-52.0400,-101.3100,0.0300,-9.4800,10.0100,0.0000,0.0000,-0.0000,1090.0000,1762.0000,1500.0000,1989.0000
154828.7210,2.0000,1987.0000,2000.0000,1649.0000,-44.0000,-92.0000,-32.0000,1807.0000,-977.0000,11200.0000,-0.8065,-0.2958,-0.4351,-0.2698,96.1200,-52.3000,-101.1300,0.7800,-9.6000,9.8900,0.0000,0.0000,-0.0000,1090.0000,1762.0000,1500.0000,1989.0000
154845.2900,2.0000,1991.0000,2000.0000,1397.0000,-84.0000,-52.0000,-24.0000,2063.0000,-938.0000,11077.0000,-0.8148,-0.2895,-0.4253,-0.2674,96.0800,-52.5600,-100.9500,1.5100,-9.6800,9.7500,0.0000,0.0000,-0.0000,1192.0000,1924.0000,1500.0000,1993.0000
154861.8380,2.0000,1992.0000,2000.0000,1385.0000,-137.0000,2.0000,-17.0000,1983.0000,-814.0000,10891.0000,-0.8216,-0.2761,-0.4188,-0.2708,96.0800,-52.5600,-100.9500,1.5100,-9.6800,9.7500,0.0000,0.0000,-0.0000,1192.0000,1924.0000,1500.0000,1993.0000
154878.6430,2.0000,1992.0000,2000.0000,1385.0000,-182.0000,62.0000,-15.0000,1377.0000,-464.0000,10061.0000,-0.8265,-0.2541,-0.4169,-0.2802,96.0500,-52.8100,-100.7800,2.1700,-9.7700,9.5900,0.0000,0.0000,-0.0000,1192.0000,1924.0000,1500.0000,1993.0000
154895.4400,2.0000,1992.0000,2000.0000,1385.0000,-206.0000,126.0000,-15.0000,1020.0000,-384.0000,8549.0000,-0.8282,-0.2254,-0.4207,-0.2938,96.0300,-53.0900,-100.6000,2.8300,-9.8800,9.3900,0.0000,0.0000,-0.0000,1192.0000,1924.0000,1500.0000,1993.0000
154912.1830,2.0000,1992.0000,2000.0000,1385.0000,-214.0000,211.0000,-12.0000,1274.0000,-413.0000,5992.0000,-0.8247,-0.1916,-0.4322,-0.3105,96.0200,-53.3600,-100.4300,3.2600,-10.0500,9.2300,0.0000,0.0000,-0.0000,1192.0000,1924.0000,1500.0000,1993.0000
154929.2990,2.0000,1992.0000,2000.0000,1385.0000,-218.0000,269.0000,-9.0000,931.0000,-371.0000,1784.0000,-0.8149,-0.1529,-0.4514,-0.3298,95.9900,-53.6500,-100.2600,3.3500,-10.3400,9.2100,0.0000,0.0000,-0.0000,1192.0000,1924.0000,1500.0000,1993.0000
154946.0970,2.0000,1996.0000,1144.0000,1936.0000,-221.0000,318.0000,-9.0000,986.0000,-188.0000,-2845.0000,-0.7996,-0.1117,-0.4756,-0.3492,95.9400,-53.9500,-100.1000,2.8800,-10.6700,9.4300,0.0000,0.0000,-0.0000,1460.0000,1099.0000,1500.0000,1998.0000
154962.9750,2.0000,1997.0000,1138.0000,1940.0000,-216.0000,325.0000,-12.0000,1008.0000,404.0000,-7724.0000,-0.7794,-0.0682,-0.5024,-0.3680,95.9400,-53.9500,-100.1000,2.8800,-10.6700,9.4300,0.0000,0.0000,-0.0000,1460.0000,1099.0000,1500.0000,1998.0000
154979.7460,2.0000,1997.0000,1138.0000,1940.0000,-231.0000,280.0000,-17.0000,1171.0000,573.0000,-11735.0000,-0.7589,-0.0256,-0.5249,-0.3846,95.8600,-54.2400,-99.9500,2.0200,-10.8600,9.6200,0.0000,0.0000,-0.0000,1460.0000,1099.0000,1500.0000,1998.0000
154996.7740,2.0000,1997.0000,1138.0000,1940.0000,-256.0000,173.0000,-22.0000,1332.0000,499.0000,-14080.0000,-0.7422,0.0163,-0.5362,-0.4016,95.8000,-54.5600,-99.8100,1.2200,-10.7200,9.9600,0.0000,0.0000,-0.0000,1460.0000,1099.0000,1500.0000,1998.0000
155013.4990,2.0000,1997.0000,1138.0000,1940.0000,-270.0000,41.0000,-25.0000,828.0000,439.0000,-14107.0000,-0.7343,0.0527,-0.5315,-0.4189,95.7100,-54.8700,-99.7000,0.3200,-10.3400,10.3000,0.0000,0.0000,-0.0000,1460.0000,1099.0000,1500.0000,1998.0000
155030.3800,2.0000,1997.0000,1138.0000,1940.0000,-276.0000,-81.0000,-32.0000,562.0000,505.0000,-11928.0000,-0.7356,0.0826,-0.5111,-0.4369,95.6200,-55.1300,-99.6000,-0.3800,-9.8700,10.7100,0.0000,0.0000,-0.0000,1460.0000,1099.0000,1500.0000,1998.0000
155047.3570,2.0000,1997.0000,1014.0000,1850.0000,-256.0000,-184.0000,-46.0000,-125.0000,329.0000,-8351.0000,-0.7444,0.1057,-0.4784,-0.4536,95.5300,-55.3800,-99.5100,-0.7300,-9.4900,11.0800,0.0000,0.0000,-0.0000,1571.0000,1081.0000,1500.0000,1998.0000
155064.2120,2.0000,1997.0000,1012.0000,1850.0000,-215.0000,-267.0000,-60.0000,-111.0000,63.0000,-3126.0000,-0.7601,0.1192,-0.4360,-0.4668,95.5300,-55.3800,-99.5100,-0.7300,-9.4900,11.0800,0.0000,0.0000,-0.0000,1571.0000,1081.0000,1500.0000,1998.0000
155081.0330,2.0000,1997.0000,1012.0000,1850.0000,-151.0000,-315.0000,-80.0000,139.0000,39.0000,2376.0000,-0.7801,0.1231,-0.3890,-0.4744,95.4600,-55.6400,-99.4000,-0.4200,-9.1100,11.4300,0.0000,0.0000,-0.0000,1571.0000,1081.0000,1500.0000,1998.0000
155098.0470,2.0000,1997.0000,1012.0000,1850.0000,-106.0000,-331.0000,-99.0000,462.0000,-314.0000,7940.0000,-0.8021,0.1196,-0.3405,-0.4757,95.4100,-55.8900,-99.2800,0.2100,-9.1200,11.6200,0.0000,0.0000,-0.0000,1571.0000,1081.0000,1500.0000,1998.0000
155114.7350,2.0000,1997.0000,1012.0000,1850.0000,-69.0000,-316.0000,-107.0000,1218.0000,-688.0000,12232.0000,-0.8235,0.1118,-0.2940,-0.4722,95.3800,-56.1200,-99.1300,1.0700,-9.4300,11.5400,0.0000,0.0000,-0.0000,1571.0000,1081.0000,1500.0000,1998.0000
155131.6420,2.0000,1997.0000,1012.0000,1850.0000,-40.0000,-277.0000,-105.0000,1958.0000,-1022.0000,14798.0000,-0.8421,0.1023,-0.2524,-0.4655,95.3700,-56.3400,-98.9800,2.0100,-9.8800,11.1200,0.0000,0.0000,-0.0000,1571.0000,1081.0000,1500.0000,1998.0000
155148.2770,2.0000,1997.0000,1012.0000,1850.0000,-14.0000,-230.0000,-101.0000,2106.0000,-1359.0000,16454.0000,-0.8576,0.0921,-0.2178,-0.4568,95.3800,-56.5700,-98.8100,2.9100,-10.3200,10.3900,0.0000,0.0000,-0.0000,1571.0000,1081.0000,1500.0000,1998.0000
155164.9620,2.0000,1997.0000,1021.0000,1859.0000,9.0000,-168.0000,-92.0000,1876.0000,-1503.0000,17093.0000,-0.8700,0.0821,-0.1913,-0.4470,95.3800,-56.5700,-98.8100,2.9100,-10.3200,10.3900,0.0000,0.0000,-0.0000,1562.0000,1081.0000,1500.0000,1998.0000
155181.7280,2.0000,1997.0000,1021.0000,1859.0000,36.0000,-110.0000,-78.0000,1489.0000,-1570.0000,16311.0000,-0.8795,0.0724,-0.1744,-0.4368,95.4300,-56.8300,-98.6300,3.6500,-10.7000,9.4000,0.0000,0.0000,-0.0000,1562.0000,1081.0000,1500.0000,1998.0000
155198.7380,2.0000,1997.0000,1021.0000,1859.0000,56.0000,-62.0000,-67.0000,1145.0000,-1435.0000,13663.0000,-0.8867,0.0630,-0.1658,-0.4269,95.4900,-57.0900,-98.4700,4.2400,-10.9000,8.3400,0.0000,0.0000,-0.0000,1562.0000,1081.0000,1500.0000,1998.0000
155215.8000,2.0000,1997.0000,1021.0000,1859.0000,76.0000,-32.0000,-53.0000,924.0000,-1508.0000,12339.0000,-0.8923,0.0525,-0.1631,-0.4176,95.5500,-57.3300,-98.3100,4.6500,-10.9200,7.4700,0.0000,0.0000,-0.0000,1562.0000,1081.0000,1500.0000,1998.0000
155232.6290,2.0000,1997.0000,1021.0000,1859.0000,86.0000,15.0000,-42.0000,500.0000,-1458.0000,11059.0000,-0.8960,0.0426,-0.1670,-0.4093,95.6300,-57.5500,-98.1700,4.9800,-10.8600,6.7400,0.0000,0.0000,-0.0000,1562.0000,1081.0000,1500.0000,1998.0000
155249.2570,2.0000,1967.0000,1462.0000,2000.0000,84.0000,34.0000,-27.0000,732.0000,-1225.0000,9311.0000,-0.8979,0.0335,-0.1748,-0.4025,95.7000,-57.7700,-98.0300,5.2300,-10.7700,6.1500,0.0000,0.0000,-0.0000,1069.0000,1075.0000,1500.0000,1968.0000
155265.8830,2.0000,1965.0000,1506.0000,2000.0000,65.0000,46.0000,-8.0000,843.0000,-1231.0000,7037.0000,-0.8979,0.0272,-0.1849,-0.3985,95.7000,-57.7700,-98.0300,5.2300,-10.7700,6.1500,0.0000,0.0000,-0.0000,1069.0000,1075.0000,1500.0000,1968.0000
155282.6160,2.0000,1965.0000,1506.0000,2000.0000,44.0000,33.0000,12.0000,972.0000,-1247.0000,5105.0000,-0.8968,0.0221,-0.1935,-0.3972,95.8000,-58.0200,-97.8900,5.3900,-10.7900,5.8100,0.0000,0.0000,-0.0000,1069.0000,1075.0000,1500.0000,1968.0000
155299.3020,2.0000,1965.0000,1506.0000,2000.0000,10.0000,-5.0000,26.0000,791.0000,-1354.0000,4244.0000,-0.8953,0.0188,-0.1971,-0.3989,95.8900,-58.2600,-97.7400,5.4600,-10.7500,5.7000,0.0000,0.0000,-0.0000,1069.0000,1075.0000,1500.0000,1968.0000
155315.9180,2.0000,1965.0000,1506.0000,2000.0000,-33.0000,-39.0000,48.0000,425.0000,-1144.0000,4219.0000,-0.8938,0.0179,-0.1935,-0.4042,95.9700,-58.4800,-97.5900,5.5000,-10.6700,5.6900,0.0000,0.0000,-0.0000,1069.0000,1075.0000,1500.0000,1968.0000
155332.7480,2.0000,1965.0000,1506.0000,2000.0000,-92.0000,-69.0000,68.0000,223.0000,-1046.0000,4843.0000,-0.8915,0.0216,-0.1828,-0.4139,96.0600,-58.6900,-97.4400,5.4900,-10.5700,5.6600,0.0000,0.0000,-0.0000,1069.0000,1075.0000,1500.0000,1968.0000
155349.2640,2.0000,1996.0000,1000.0000,1801.0000,-133.0000,-90.0000,86.0000,783.0000,-788.0000,5474.0000,-0.8883,0.0294,-0.1659,-0.4272,96.1400,-58.8900,-97.2800,5.5000,-10.5300,5.5600,0.0000,0.0000,-0.0000,1628.0000,1086.0000,1500.0000,1998.0000
155366.0570,2.0000,1997.0000,1000.0000,1788.0000,-174.0000,-109.0000,95.0000,689.0000,-627.0000,6731.0000,-0.8840,0.0411,-0.1435,-0.4430,96.1400,-58.8900,-97.2800,5.5000,-10.5300,5.5600,0.0000,0.0000,-0.0000,1628.0000,1086.0000,1500.0000,1998.0000
155382.4720,2.0000,1997.0000,1000.0000,1788.0000,-202.0000,-118.0000,101.0000,563.0000,-450.0000,7996.0000,-0.8785,0.0555,-0.1175,-0.4596,96.2400,-59.1300,-97.1100,5.6200,-10.7200,5.3600,0.0000,0.0000,-0.0000,1628.0000,1086.0000,1500.0000,1998.0000
155399.3250,2.0000,1997.0000,1000.0000,1788.0000,-187.0000,-131.0000,96.0000,735.0000,-463.0000,8503.0000,-0.8718,0.0707,-0.0889,-0.4765,96.3400,-59.3700,-96.9400,5.6800,-10.9200,4.9900,0.0000,0.0000,-0.0000,1628.0000,1086.0000,1500.0000,1998.0000
155416.1310,2.0000,1997.0000,1000.0000,1788.0000,-141.0000,-159.0000,76.0000,620.0000,-283.0000,8687.0000,-0.8655,0.0804,-0.0599,-0.4907,96.4400,-59.6000,-96.7900,5.7000,-11.1100,4.5200,0.0000,0.0000,-0.0000,1628.0000,1086.0000,1500.0000,1998.0000
155432.9690,2.0000,1997.0000,1000.0000,1788.0000,-98.0000,-174.0000,55.0000,700.0000,-66.0000,9693.0000,-0.8605,0.0827,-0.0309,-0.5017,96.5400,-59.8200,-96.6500,5.6400,-11.2800,3.9600,0.0000,0.0000,-0.0000,1628.0000,1086.0000,1500.0000,1998.0000
155449.6880,2.0000,1997.0000,1484.0000,1000.0000,-62.0000,-186.0000,28.0000,888.0000,211.0000,10801.0000,-0.8571,0.0793,-0.0029,-0.5090,96.5400,-59.8200,-96.6500,5.6400,-11.2800,3.9600,0.0000,0.0000,-0.0000,1881.0000,1866.0000,1500.0000,1999.0000
155466.5580,2.0000,1998.0000,1485.0000,1000.0000,-38.0000,-191.0000,6.0000,1186.0000,49.0000,11994.0000,-0.8553,0.0712,0.0247,-0.5126,96.6300,-60.0400,-96.5300,5.5500,-11.4700,3.2900,0.0000,0.0000,-0.0000,1881.0000,1866.0000,1500.0000,1999.0000
155483.1690,2.0000,1998.0000,1485.0000,1000.0000,-36.0000,-186.0000,-11.0000,1319.0000,-384.0000,13124.0000,-0.8545,0.0615,0.0511,-0.5133,96.7500,-60.2900,-96.4100,5.5300,-11.6900,2.4700,0.0000,0.0000,-0.0000,1881.0000,1866.0000,1500.0000,1999.0000
155499.8980,2.0000,1998.0000,1485.0000,1000.0000,-27.0000,-159.0000,-22.0000,1562.0000,-440.0000,14275.0000,-0.8541,0.0522,0.0752,-0.5120,96.8600,-60.5400,-96.3200,5.5000,-11.8300,1.5000,0.0000,0.0000,-0.0000,1881.0000,1866.0000,1500.0000,1999.0000
155516.5110,2.0000,1998.0000,1485.0000,1000.0000,-18.0000,-94.0000,-32.0000,1622.0000,-446.0000,14859.0000,-0.8547,0.0454,0.0930,-0.5086,96.9600,-60.7800,-96.2400,5.4100,-11.9100,0.4000,0.0000,0.0000,-0.0000,1881.0000,1866.0000,1500.0000,1999.0000
155533.2290,2.0000,1998.0000,1485.0000,1000.0000,27.0000,-25.0000,-37.0000,1589.0000,-799.0000,14903.0000,-0.8568,0.0404,0.1008,-0.5042,97.0600,-61.0200,-96.1900,5.2900,-11.9400,-0.7600,0.0000,0.0000,-0.0000,1881.0000,1866.0000,1500.0000,1999.0000
155549.8520,2.0000,1998.0000,1514.0000,1000.0000,100.0000,54.0000,-37.0000,1310.0000,-1023.0000,13395.0000,-0.8602,0.0336,0.0941,-0.5000,97.0600,-61.0200,-96.1900,5.2900,-11.9400,-0.7600,0.0000,0.0000,-0.0000,1884.0000,1898.0000,1500.0000,1999.0000
155566.4780,2.0000,1998.0000,1514.0000,1000.0000,197.0000,124.0000,-32.0000,1097.0000,-842.0000,10933.0000,-0.8646,0.0214,0.0719,-0.4968,97.1600,-61.2600,-96.1600,5.2400,-11.9400,-1.8800,0.0000,0.0000,-0.0000,1884.0000,1898.0000,1500.0000,1999.0000
155583.0170,2.0000,1998.0000,1514.0000,1000.0000,285.0000,207.0000,-24.0000,825.0000,-756.0000,7395.0000,-0.8685,0.0026,0.0334,-0.4945,97.2900,-61.5200,-96.1500,5.3900,-12.0200,-2.7300,0.0000,0.0000,-0.0000,1884.0000,1898.0000,1500.0000,1999.0000
155599.8010,2.0000,1998.0000,1514.0000,1000.0000,366.0000,274.0000,-15.0000,943.0000,-429.0000,2945.0000,-0.8699,-0.0214,-0.0210,-0.4922,97.4100,-61.7800,-96.1400,5.6700,-12.1000,-3.1700,0.0000,0.0000,-0.0000,1884.0000,1898.0000,1500.0000,1999.0000
155616.7540,2.0000,1998.0000,1514.0000,1000.0000,400.0000,329.0000,-6.0000,1052.0000,-123.0000,-2441.0000,-0.8664,-0.0489,-0.0884,-0.4890,97.5500,-62.0300,-96.1000,6.0200,-12.2200,-3.0200,0.0000,0.0000,-0.0000,1884.0000,1898.0000,1500.0000,1999.0000
155633.4730,2.0000,1998.0000,1514.0000,1000.0000,389.0000,339.0000,6.0000,1319.0000,185.0000,-8255.0000,-0.8569,-0.0746,-0.1592,-0.4846,97.6800,-62.2700,-96.0500,6.2000,-12.3400,-2.4400,0.0000,0.0000,-0.0000,1884.0000,1898.0000,1500.0000,1999.0000
155650.0990,2.0000,1984.0000,2000.0000,1661.0000,371.0000,299.0000,15.0000,1190.0000,103.0000,-11949.0000,-0.8425,-0.0991,-0.2258,-0.4788,97.6800,-62.2700,-96.0500,6.2000,-12.3400,-2.4400,0.0000,0.0000,-0.0000,1076.0000,1763.0000,1500.0000,1986.0000
155666.7190,2.0000,1984.0000,2000.0000,1662.0000,353.0000,231.0000,26.0000,1161.0000,-375.0000,-12917.0000,-0.8259,-0.1259,-0.2820,-0.4717,97.8200,-62.5200,-96.0300,6.0500,-12.4500,-1.6800,0.0000,0.0000,-0.0000,1076.0000,1763.0000,1500.0000,1986.0000
155683.9070,2.0000,1984.0000,2000.0000,1662.0000,295.0000,154.0000,28.0000,771.0000,-481.0000,-11973.0000,-0.8089,-0.1540,-0.3282,-0.4630,97.9900,-62.8200,-96.0200,5.7500,-12.5600,-0.7700,0.0000,0.0000,-0.0000,1076.0000,1763.0000,1500.0000,1986.0000
155700.5220,2.0000,1984.0000,2000.0000,1662.0000,187.0000,101.0000,33.0000,926.0000,-213.0000,-10362.0000,-0.7953,-0.1753,-0.3580,-0.4568,98.1400,-63.1100,-96.0200,5.4100,-12.6200,0.0500,0.0000,0.0000,-0.0000,1076.0000,1763.0000,1500.0000,1986.0000
155717.1700,2.0000,1984.0000,2000.0000,1662.0000,45.0000,38.0000,37.0000,1071.0000,-246.0000,-8956.0000,-0.7865,-0.1862,-0.3727,-0.4559,98.2800,-63.3800,-96.0100,5.1400,-12.7000,0.8100,0.0000,0.0000,-0.0000,1076.0000,1763.0000,1500.0000,1986.0000
155734.0590,2.0000,1984.0000,2000.0000,1662.0000,-92.0000,-24.0000,45.0000,809.0000,-293.0000,-7184.0000,-0.7848,-0.1851,-0.3696,-0.4618,98.2800,-63.3800,-96.0100,5.1400,-12.7000,0.8100,0.0000,0.0000,-0.0000,1076.0000,1763.0000,1500.0000,1986.0000
155750.9690,2.0000,1986.0000,1944.0000,1576.0000,-183.0000,-64.0000,51.0000,507.0000,-337.0000,-5541.0000,-0.7882,-0.1749,-0.3529,-0.4728,98.4000,-63.6300,-96.0100,5.0200,-12.7500,1.4000,0.0000,0.0000,-0.0000,1812.0000,1414.0000,1500.0000,1998.0000
155767.8530,2.0000,1997.0000,1104.0000,1274.0000,-243.0000,-75.0000,50.0000,245.0000,-314.0000,-4075.0000,-0.7941,-0.1575,-0.3277,-0.4870,98.5300,-63.9000,-96.0100,5.0400,-12.8000,1.8700,0.0000,0.0000,-0.0000,1812.0000,1414.0000,1500.0000,1998.0000
155784.7200,2.0000,1997.0000,1104.0000,1274.0000,-283.0000,-71.0000,47.0000,717.0000,-254.0000,-2090.0000,-0.8001,-0.1343,-0.2985,-0.5027,98.7000,-64.2100,-96.0000,5.1800,-12.8800,2.3600,0.0000,0.0000,-0.0000,1812.0000,1414.0000,1500.0000,1998.0000
155801.4750,2.0000,1997.0000,1104.0000,1274.0000,-277.0000,-53.0000,44.0000,586.0000,-475.0000,-276.0000,-0.8051,-0.1081,-0.2684,-0.5178,98.8600,-64.5100,-95.9900,5.4600,-12.9700,2.7300,0.0000,0.0000,-0.0000,1812.0000,1414.0000,1500.0000,1998.0000
155818.1610,2.0000,1997.0000,1104.0000,1274.0000,-226.0000,-10.0000,38.0000,560.0000,-518.0000,1359.0000,-0.8070,-0.0822,-0.2451,-0.5309,99.0100,-64.7900,-95.9600,5.8200,-13.0300,2.9500,0.0000,0.0000,-0.0000,1812.0000,1414.0000,1500.0000,1998.0000
155835.0300,2.0000,1997.0000,1104.0000,1274.0000,-136.0000,43.0000,26.0000,610.0000,-355.0000,1256.0000,-0.8062,-0.0601,-0.2329,-0.5406,99.0100,-64.7900,-95.9600,5.8200,-13.0300,2.9500,0.0000,0.0000,-0.0000,1812.0000,1414.0000,1500.0000,1998.0000
155851.7170,2.0000,1997.0000,1000.0000,1680.0000,-22.0000,65.0000,4.0000,777.0000,369.0000,-395.0000,-0.8041,-0.0472,-0.2330,-0.5449,99.1600,-65.0500,-95.9300,6.1800,-13.0900,3.2000,0.0000,0.0000,-0.0000,1683.0000,1099.0000,1500.0000,1998.0000
155868.4370,2.0000,1997.0000,1000.0000,1720.0000,94.0000,55.0000,-28.0000,502.0000,889.0000,-2690.0000,-0.8031,-0.0468,-0.2433,-0.5419,99.3300,-65.3300,-95.8800,6.4000,-13.1700,3.5500,0.0000,0.0000,-0.0000,1683.0000,1099.0000,1500.0000,1998.0000
155885.1770,2.0000,1997.0000,1000.0000,1720.0000,181.0000,41.0000,-54.0000,371.0000,562.0000,-4283.0000,-0.8039,-0.0576,-0.2603,-0.5317,99.5300,-65.6500,-95.8100,6.4300,-13.2000,4.1000,0.0000,0.0000,-0.0000,1683.0000,1099.0000,1500.0000,1998.0000
155901.9490,2.0000,1997.0000,1000.0000,1720.0000,249.0000,6.0000,-79.0000,-96.0000,213.0000,-5237.0000,-0.8062,-0.0797,-0.2810,-0.5145,99.7100,-65.9400,-95.7200,6.3700,-13.1500,4.7200,0.0000,0.0000,-0.0000,1683.0000,1099.0000,1500.0000,1998.0000
155918.7320,2.0000,1997.0000,1000.0000,1720.0000,233.0000,-44.0000,-94.0000,109.0000,384.0000,-5107.0000,-0.8104,-0.1070,-0.2983,-0.4929,99.8800,-66.2200,-95.6200,6.2500,-13.0600,5.3300,0.0000,0.0000,-0.0000,1683.0000,1099.0000,1500.0000,1998.0000
155935.5650,2.0000,1997.0000,1000.0000,1720.0000,184.0000,-106.0000,-100.0000,76.0000,348.0000,-3796.0000,-0.8173,-0.1331,-0.3056,-0.4700,99.8800,-66.2200,-95.6200,6.2500,-13.0600,5.3300,0.0000,0.0000,-0.0000,1683.0000,1099.0000,1500.0000,1998.0000
155952.5990,2.0000,1986.0000,2000.0000,1802.0000,139.0000,-173.0000,-103.0000,436.0000,-148.0000,-599.0000,-0.8276,-0.1577,-0.3012,-0.4467,100.0300,-66.4700,-95.5100,6.1500,-13.0100,5.9300,0.0000,0.0000,-0.0000,1078.0000,1621.0000,1500.0000,1988.0000
155969.1580,2.0000,1986.0000,2000.0000,1803.0000,119.0000,-214.0000,-100.0000,143.0000,-633.0000,2755.0000,-0.8393,-0.1810,-0.2885,-0.4238,100.1900,-66.7500,-95.3700,6.2300,-13.0600,6.3800,0.0000,0.0000,-0.0000,1078.0000,1621.0000,1500.0000,1988.0000
155986.2150,2.0000,1986.0000,2000.0000,1803.0000,108.0000,-241.0000,-94.0000,493.0000,-874.0000,6101.0000,-0.8516,-0.2054,-0.2695,-0.3999,100.3700,-67.0600,-95.2100,6.5400,-13.1600,6.6600,0.0000,0.0000,-0.0000,1078.0000,1621.0000,1500.0000,1988.0000
156003.2730,2.0000,1986.0000,2000.0000,1803.0000,72.0000,-245.0000,-76.0000,929.0000,-1039.0000,9344.0000,-0.8632,-0.2279,-0.2463,-0.3772,100.5500,-67.3600,-95.0300,7.0500,-13.1500,6.7200,0.0000,0.0000,-0.0000,1078.0000,1621.0000,1500.0000,1988.0000
156019.9540,2.0000,1986.0000,2000.0000,1803.0000,32.0000,-232.0000,-54.0000,1382.0000,-1288.0000,12123.0000,-0.8731,-0.2449,-0.2209,-0.3589,100.7200,-67.6300,-94.8400,7.7000,-13.0300,6.5300,0.0000,0.0000,-0.0000,1078.0000,1621.0000,1500.0000,1988.0000
156036.7000,2.0000,1986.0000,2000.0000,1803.0000,-12.0000,-194.0000,-30.0000,1709.0000,-1593.0000,14723.0000,-0.8815,-0.2560,-0.1955,-0.3452,100.7200,-67.6300,-94.8400,7.7000,-13.0300,6.5300,0.0000,0.0000,-0.0000,1078.0000,1621.0000,1500.0000,1988.0000
156053.2930,2.0000,1986.0000,2000.0000,1803.0000,-73.0000,-138.0000,-7.0000,1944.0000,-1511.0000,16210.0000,-0.8885,-0.2585,-0.1725,-0.3376,100.9000,-67.8800,-94.6300,8.4300,-12.7500,6.0900,0.0000,0.0000,-0.0000,1078.0000,1621.0000,1500.0000,1988.0000
156070.1060,2.0000,1998.0000,1901.0000,1099.0000,-158.0000,-62.0000,11.0000,1995.0000,-1359.0000,16256.0000,-0.8950,-0.2484,-0.1538,-0.3371,101.1100,-68.1500,-94.4300,9.1100,-12.4700,5.4000,0.0000,0.0000,-0.0000,1503.0000,1902.0000,1500.0000,1999.0000
156086.9110,2.0000,1998.0000,1900.0000,1098.0000,-240.0000,16.0000,23.0000,1523.0000,-1065.0000,14968.0000,-0.9015,-0.2232,-0.1405,-0.3430,101.3200,-68.4500,-94.2400,9.7000,-12.2600,4.5500,0.0000,0.0000,-0.0000,1503.0000,1902.0000,1500.0000,1999.0000
156103.5240,2.0000,1998.0000,1900.0000,1098.0000,-287.0000,84.0000,31.0000,1302.0000,-883.0000,12599.0000,-0.9070,-0.1858,-0.1331,-0.3537,101.5400,-68.7200,-94.0800,10.0900,-12.1200,3.6900,0.0000,0.0000,-0.0000,1503.0000,1902.0000,1500.0000,1999.0000
156120.6150,2.0000,1998.0000,1900.0000,1098.0000,-297.0000,154.0000,35.0000,1123.0000,-788.0000,9307.0000,-0.9101,-0.1401,-0.1320,-0.3670,101.7500,-68.9700,-93.9400,10.2400,-12.1500,3.0500,0.0000,0.0000,-0.0000,1503.0000,1902.0000,1500.0000,1999.0000
156137.6450,2.0000,1998.0000,1900.0000,1098.0000,-246.0000,244.0000,40.0000,1524.0000,-348.0000,5558.0000,-0.9087,-0.0922,-0.1430,-0.3812,101.7500,-68.9700,-93.9400,10.2400,-12.1500,3.0500,0.0000,0.0000,-0.0000,1503.0000,1902.0000,1500.0000,1999.0000
156154.6260,2.0000,1997.0000,1271.0000,1059.0000,-159.0000,328.0000,43.0000,1792.0000,-240.0000,1485.0000,-0.9018,-0.0491,-0.1692,-0.3946,101.9400,-69.2200,-93.7800,10.1200,-12.3900,2.7500,0.0000,0.0000,-0.0000,1837.0000,1608.0000,1500.0000,1998.0000
156171.5670,2.0000,1997.0000,1270.0000,1058.0000,-69.0000,404.0000,43.0000,1325.0000,-24.0000,-4408.0000,-0.8894,-0.0131,-0.2110,-0.4053,102.1500,-69.5000,-93.6100,9.9200,-12.7700,2.8500,0.0000,0.0000,-0.0000,1837.0000,1608.0000,1500.0000,1998.0000
156188.4730,2.0000,1997.0000,1270.0000,1058.0000,6.0000,411.0000,41.0000,759.0000,337.0000,-11634.0000,-0.8722,0.0141,-0.2635,-0.4118,102.3700,-69.8300,-93.4500,9.5700,-13.0200,3.3700,0.0000,0.0000,-0.0000,1837.0000,1608.0000,1500.0000,1998.0000
156205.2220,2.0000,1997.0000,1270.0000,1058.0000,71.0000,335.0000,30.0000,1064.0000,650.0000,-16030.0000,-0.8540,0.0304,-0.3139,-0.4138,102.5600,-70.1300,-93.3200,8.8400,-12.9800,3.9800,0.0000,0.0000,-0.0000,1837.0000,1608.0000,1500.0000,1998.0000
156221.9690,2.0000,1997.0000,1270.0000,1058.0000,116.0000,227.0000,16.0000,685.0000,740.0000,-16335.0000,-0.8393,0.0351,-0.3541,-0.4111,102.7200,-70.4100,-93.2200,7.8900,-12.7600,4.9900,0.0000,0.0000,-0.0000,1837.0000,1608.0000,1500.0000,1998.0000
156238.8010,2.0000,1997.0000,1086.0000,1874.0000,171.0000,106.0000,-1.0000,170.0000,498.0000,-14952.0000,-0.8307,0.0272,-0.3830,-0.4032,102.7200,-70.4100,-93.2200,7.8900,-12.7600,4.9900,0.0000,0.0000,-0.0000,1507.0000,1081.0000,1500.0000,1998.0000
156255.5060,2.0000,1997.0000,1076.0000,1914.0000,234.0000,-14.0000,-17.0000,342.0000,547.0000,-12720.0000,-0.8292,0.0061,-0.4003,-0.3901,102.8600,-70.6600,-93.1200,7.0000,-12.5000,5.9300,0.0000,0.0000,-0.0000,1507.0000,1081.0000,1500.0000,1998.0000
156272.4460,2.0000,1997.0000,1076.0000,1914.0000,287.0000,-100.0000,-39.0000,262.0000,433.0000,-10184.0000,-0.8342,-0.0284,-0.4078,-0.3701,103.0100,-70.9500,-93.0300,6.4400,-12.3600,6.6900,0.0000,0.0000,-0.0000,1507.0000,1081.0000,1500.0000,1998.0000
156289.2730,2.0000,1997.0000,1076.0000,1914.0000,304.0000,-187.0000,-55.0000,827.0000,284.0000,-7772.0000,-0.8435,-0.0699,-0.4059,-0.3448,103.1700,-71.2700,-92.9400,6.2200,-12.3900,7.2800,0.0000,0.0000,-0.0000,1507.0000,1081.0000,1500.0000,1998.0000
156306.2220,2.0000,1997.0000,1076.0000,1914.0000,305.0000,-247.0000,-64.0000,1178.0000,97.0000,-4643.0000,-0.8552,-0.1157,-0.3944,-0.3157,103.3200,-71.5600,-92.8600,6.2400,-12.5700,7.7300,0.0000,0.0000,-0.0000,1507.0000,1081.0000,1500.0000,1998.0000
156323.2190,2.0000,1997.0000,1076.0000,1914.0000,284.0000,-293.0000,-66.0000,699.0000,-225.0000,-1120.0000,-0.8679,-0.1624,-0.3738,-0.2840,103.4600,-71.8300,-92.7600,6.5200,-12.7600,8.2500,0.0000,0.0000,-0.0000,1507.0000,1081.0000,1500.0000,1998.0000
156340.0740,2.0000,1997.0000,1076.0000,1914.0000,227.0000,-319.0000,-58.0000,790.0000,-296.0000,2374.0000,-0.8797,-0.2045,-0.3463,-0.2536,103.4600,-71.8300,-92.7600,6.5200,-12.7600,8.2500,0.0000,0.0000,-0.0000,1507.0000,1081.0000,1500.0000,1998.0000
156356.9650,2.0000,1964.0000,1495.0000,2000.0000,150.0000,-345.0000,-37.0000,987.0000,-946.0000,6433.0000,-0.8917,-0.2382,-0.3107,-0.2271,103.6000,-72.0900,-92.6400,7.0400,-12.8800,8.5700,0.0000,0.0000,-0.0000,1068.0000,1065.0000,1500.0000,1967.0000
156373.7340,2.0000,1964.0000,1497.0000,2000.0000,106.0000,-351.0000,-17.0000,1111.0000,-1326.0000,10435.0000,-0.9029,-0.2648,-0.2695,-0.2050,103.8000,-72.3900,-92.4800,7.9100,-12.7700,8.7900,0.0000,0.0000,-0.0000,1068.0000,1065.0000,1500.0000,1967.0000
156390.5240,2.0000,1964.0000,1497.0000,2000.0000,60.0000,-324.0000,0.0000,1682.0000,-1456.0000,13828.0000,-0.9120,-0.2855,-0.2273,-0.1873,104.0300,-72.7000,-92.3000,8.9700,-12.3800,8.7100,0.0000,0.0000,-0.0000,1068.0000,1065.0000,1500.0000,1967.0000
156407.4540,2.0000,1964.0000,1497.0000,2000.0000,19.0000,-271.0000,11.0000,2236.0000,-1408.0000,16302.0000,-0.9193,-0.2990,-0.1878,-0.1740,104.2600,-72.9700,-92.1000,10.0500,-11.7900,8.3500,0.0000,0.0000,-0.0000,1068.0000,1065.0000,1500.0000,1967.0000
156424.1560,2.0000,1964.0000,1497.0000,2000.0000,-5.0000,-199.0000,19.0000,2184.0000,-1409.0000,16990.0000,-0.9244,-0.3061,-0.1558,-0.1657,104.2600,-72.9700,-92.1000,10.0500,-11.7900,8.3500,0.0000,0.0000,-0.0000,1068.0000,1065.0000,1500.0000,1967.0000
156440.9850,2.0000,1964.0000,1497.0000,2000.0000,-34.0000,-125.0000,28.0000,1842.0000,-1262.0000,16554.0000,-0.9282,-0.3077,-0.1322,-0.1621,104.5000,-73.2200,-91.9000,10.9900,-11.1100,7.6400,0.0000,0.0000,-0.0000,1068.0000,1065.0000,1500.0000,1967.0000
156457.8170,2.0000,1965.0000,1496.0000,2000.0000,-57.0000,-31.0000,39.0000,1398.0000,-1300.0000,14952.0000,-0.9310,-0.3040,-0.1185,-0.1640,104.7400,-73.4400,-91.7000,11.6800,-10.4600,6.8600,0.0000,0.0000,-0.0000,1069.0000,1065.0000,1500.0000,1968.0000
156474.4380,2.0000,1965.0000,1496.0000,2000.0000,-71.0000,27.0000,53.0000,932.0000,-959.0000,12021.0000,-0.9327,-0.2957,-0.1151,-0.1715,105.0300,-73.6800,-91.5100,12.1400,-9.9500,6.1400,0.0000,0.0000,-0.0000,1069.0000,1065.0000,1500.0000,1968.0000
156491.4480,2.0000,1965.0000,1496.0000,2000.0000,-70.0000,68.0000,65.0000,838.0000,-720.0000,9161.0000,-0.9333,-0.2856,-0.1175,-0.1832,105.3200,-73.9300,-91.3300,12.3700,-9.6700,5.6100,0.0000,0.0000,-0.0000,1069.0000,1065.0000,1500.0000,1968.0000
156508.2020,2.0000,1965.0000,1496.0000,2000.0000,-83.0000,92.0000,68.0000,907.0000,-311.0000,6842.0000,-0.9331,-0.2746,-0.1234,-0.1968,105.5900,-74.1500,-91.1500,12.4600,-9.6300,5.2900,0.0000,0.0000,-0.0000,1069.0000,1065.0000,1500.0000,1968.0000
156524.8470,2.0000,1965.0000,1496.0000,2000.0000,-96.0000,91.0000,71.0000,908.0000,-63.0000,4590.0000,-0.9327,-0.2611,-0.1307,-0.2116,105.5900,-74.1500,-91.1500,12.4600,-9.6300,5.2900,0.0000,0.0000,-0.0000,1069.0000,1065.0000,1500.0000,1968.0000
156541.5960,2.0000,1972.0000,1405.0000,2000.0000,-115.0000,67.0000,67.0000,765.0000,267.0000,2611.0000,-0.9328,-0.2457,-0.1356,-0.2260,105.8500,-74.3600,-90.9800,12.4500,-9.7400,5.1400,0.0000,0.0000,-0.0000,1491.0000,1081.0000,1500.0000,1998.0000
156558.7020,2.0000,1997.0000,1089.0000,1927.0000,-151.0000,32.0000,59.0000,674.0000,499.0000,1744.0000,-0.9343,-0.2269,-0.1354,-0.2392,106.0900,-74.5600,-90.8100,12.3200,-9.9600,5.1800,0.0000,0.0000,-0.0000,1491.0000,1081.0000,1500.0000,1998.0000
156575.5540,2.0000,1997.0000,1089.0000,1927.0000,-175.0000,-5.0000,47.0000,155.0000,838.0000,1106.0000,-0.9374,-0.2051,-0.1295,-0.2500,106.3600,-74.7900,-90.6300,12.1900,-10.1000,5.2900,0.0000,0.0000,-0.0000,1491.0000,1081.0000,1500.0000,1998.0000
156592.3320,2.0000,1997.0000,1089.0000,1927.0000,-174.0000,-54.0000,30.0000,380.0000,1024.0000,1146.0000,-0.9414,-0.1826,-0.1180,-0.2577,106.6200,-75.0300,-90.4500,12.0300,-10.2000,5.4100,0.0000,0.0000,-0.0000,1491.0000,1081.0000,1500.0000,1998.0000
156609.4080,2.0000,1997.0000,1089.0000,1927.0000,-153.0000,-104.0000,5.0000,610.0000,823.0000,2061.0000,-0.9463,-0.1629,-0.1001,-0.2608,106.8700,-75.2500,-90.2800,11.9000,-10.3000,5.5000,0.0000,0.0000,-0.0000,1491.0000,1081.0000,1500.0000,1998.0000
156626.1620,2.0000,1997.0000,1089.0000,1927.0000,-136.0000,-149.0000,-18.0000,897.0000,423.0000,4239.0000,-0.9514,-0.1478,-0.0773,-0.2588,106.8700,-75.2500,-90.2800,11.9000,-10.3000,5.5000,0.0000,0.0000,-0.0000,1491.0000,1081.0000,1500.0000,1998.0000
156642.8980,2.0000,1997.0000,1009.0000,1845.0000,-121.0000,-176.0000,-40.0000,878.0000,209.0000,6499.0000,-0.9568,-0.1358,-0.0499,-0.2523,107.1000,-75.4600,-90.1200,11.8400,-10.3300,5.4300,0.0000,0.0000,-0.0000,1584.0000,1082.0000,1500.0000,1998.0000
156659.7260,2.0000,1997.0000,1000.0000,1836.0000,-107.0000,-191.0000,-56.0000,1278.0000,135.0000,9066.0000,-0.9617,-0.1259,-0.0207,-0.2425,107.3100,-75.6600,-89.9500,11.8300,-10.2600,5.1500,0.0000,0.0000,-0.0000,1584.0000,1082.0000,1500.0000,1998.0000
156676.3990,2.0000,1997.0000,1000.0000,1836.0000,-76.0000,-183.0000,-73.0000,1704.0000,-468.0000,11691.0000,-0.9658,-0.1194,0.0078,-0.2301,107.5700,-75.8800,-89.7900,11.9400,-10.0300,4.6000,0.0000,0.0000,-0.0000,1584.0000,1082.0000,1500.0000,1998.0000
156693.2080,2.0000,1997.0000,1000.0000,1836.0000,-49.0000,-162.0000,-79.0000,1838.0000,-654.0000,13013.0000,-0.9688,-0.1165,0.0329,-0.2161,107.8300,-76.0900,-89.6200,12.0600,-9.6700,3.8000,0.0000,0.0000,-0.0000,1584.0000,1082.0000,1500.0000,1998.0000
156710.0690,2.0000,1997.0000,1000.0000,1836.0000,-38.0000,-130.0000,-80.0000,1584.0000,-758.0000,13315.0000,-0.9711,-0.1156,0.0536,-0.2020,108.0800,-76.2900,-89.4800,12.1100,-9.2900,2.8700,0.0000,0.0000,-0.0000,1584.0000,1082.0000,1500.0000,1998.0000
156727.2940,2.0000,1997.0000,1000.0000,1836.0000,-22.0000,-99.0000,-75.0000,1430.0000,-918.0000,12948.0000,-0.9728,-0.1152,0.0698,-0.1886,108.0800,-76.2900,-89.4800,12.1100,-9.2900,2.8700,0.0000,0.0000,-0.0000,1584.0000,1082.0000,1500.0000,1998.0000
156743.9400,2.0000,1997.0000,1000.0000,1836.0000,-3.0000,-57.0000,-64.0000,1281.0000,-1075.0000,12085.0000,-0.9740,-0.1163,0.0797,-0.1775,108.3200,-76.4700,-89.3700,12.0800,-8.9000,1.9300,0.0000,0.0000,-0.0000,1584.0000,1082.0000,1500.0000,1998.0000
156760.5710,2.0000,1997.0000,1357.0000,1897.0000,13.0000,-19.0000,-54.0000,1144.0000,-1123.0000,10553.0000,-0.9749,-0.1186,0.0836,-0.1686,108.5400,-76.6300,-89.2700,12.0100,-8.5400,1.0700,0.0000,0.0000,-0.0000,1372.0000,1230.0000,1500.0000,1998.0000
156777.3220,2.0000,1997.0000,1357.0000,1897.0000,31.0000,-6.0000,-44.0000,1136.0000,-1181.0000,9063.0000,-0.9756,-0.1226,0.0836,-0.1617,108.8000,-76.8000,-89.1900,12.0800,-8.0900,0.3400,0.0000,0.0000,-0.0000,1372.0000,1230.0000,1500.0000,1998.0000
156794.1980,2.0000,1997.0000,1357.0000,1897.0000,38.0000,1.0000,-37.0000,798.0000,-1077.0000,7252.0000,-0.9759,-0.1283,0.0822,-0.1562,109.0600,-76.9600,-89.1100,12.1800,-7.6900,-0.1600,0.0000,0.0000,-0.0000,1372.0000,1230.0000,1500.0000,1998.0000
156811.0890,2.0000,1997.0000,1357.0000,1897.0000,23.0000,-5.0000,-27.0000,800.0000,-1031.0000,6032.0000,-0.9760,-0.1335,0.0811,-0.1518,109.3200,-77.1000,-89.0400,12.2600,-7.3400,-0.4900,0.0000,0.0000,-0.0000,1372.0000,1230.0000,1500.0000,1998.0000
156827.9200,2.0000,1997.0000,1357.0000,1897.0000,-1.0000,-12.0000,-10.0000,1125.0000,-724.0000,4707.0000,-0.9761,-0.1354,0.0814,-0.1491,109.3200,-77.1000,-89.0400,12.2600,-7.3400,-0.4900,0.0000,0.0000,-0.0000,1372.0000,1230.0000,1500.0000,1998.0000
156844.5890,2.0000,1997.0000,1357.0000,1897.0000,-25.0000,-37.0000,9.0000,1107.0000,-742.0000,3963.0000,-0.9761,-0.1340,0.0849,-0.1485,109.5600,-77.2300,-88.9700,12.3600,-7.0800,-0.6800,0.0000,0.0000,-0.0000,1372.0000,1230.0000,1500.0000,1998.0000
156861.3910,2.0000,1997.0000,2000.0000,1163.0000,-53.0000,-66.0000,21.0000,820.0000,-831.0000,4302.0000,-0.9758,-0.1294,0.0942,-0.1489,109.8000,-77.3500,-88.9000,12.4600,-6.8700,-0.7500,0.0000,0.0000,-0.0000,1404.0000,1933.0000,1500.0000,1998.0000
156878.2810,2.0000,1997.0000,2000.0000,1163.0000,-64.0000,-97.0000,30.0000,773.0000,-788.0000,4898.0000,-0.9752,-0.1224,0.1077,-0.1499,110.0700,-77.4700,-88.8100,12.4700,-6.5300,-0.8300,0.0000,0.0000,-0.0000,1404.0000,1933.0000,1500.0000,1998.0000
156895.0300,2.0000,1997.0000,2000.0000,1163.0000,-71.0000,-109.0000,37.0000,863.0000,-751.0000,6414.0000,-0.9738,-0.1145,0.1250,-0.1516,110.3400,-77.5900,-88.7300,12.4300,-6.1600,-1.0000,0.0000,0.0000,-0.0000,1404.0000,1933.0000,1500.0000,1998.0000
156911.7930,2.0000,1997.0000,2000.0000,1163.0000,-93.0000,-87.0000,41.0000,1149.0000,-677.0000,8072.0000,-0.9724,-0.1043,0.1415,-0.1537,110.3400,-77.5900,-88.7300,12.4300,-6.1600,-1.0000,0.0000,0.0000,-0.0000,1404.0000,1933.0000,1500.0000,1998.0000
156928.7630,2.0000,1997.0000,2000.0000,1163.0000,-120.0000,-33.0000,40.0000,1535.0000,-492.0000,9570.0000,-0.9716,-0.0896,0.1538,-0.1559,110.6000,-77.6900,-88.6500,12.3300,-5.8000,-1.3600,0.0000,0.0000,-0.0000,1404.0000,1933.0000,1500.0000,1998.0000
156945.5630,2.0000,1997.0000,2000.0000,1163.0000,-132.0000,48.0000,35.0000,1450.0000,-526.0000,10409.0000,-0.9725,-0.0700,0.1562,-0.1582,110.8400,-77.7900,-88.5800,12.1900,-5.4600,-1.9100,0.0000,0.0000,-0.0000,1404.0000,1933.0000,1500.0000,1998.0000
156962.3970,2.0000,1998.0000,1500.0000,1000.0000,-124.0000,141.0000,33.0000,1066.0000,-375.0000,9615.0000,-0.9749,-0.0487,0.1463,-0.1607,111.0700,-77.8700,-88.5300,12.0200,-5.1900,-2.6000,0.0000,0.0000,-0.0000,1886.0000,1886.0000,1500.0000,1999.0000
156979.1710,2.0000,1998.0000,1500.0000,1000.0000,-108.0000,258.0000,32.0000,711.0000,-99.0000,6376.0000,-0.9789,-0.0264,0.1193,-0.1637,111.3400,-77.9600,-88.4900,11.9100,-4.9200,-3.2300,0.0000,0.0000,-0.0000,1886.0000,1886.0000,1500.0000,1999.0000
156996.1610,2.0000,1998.0000,1500.0000,1000.0000,-63.0000,354.0000,32.0000,1057.0000,67.0000,1667.0000,-0.9828,-0.0054,0.0770,-0.1675,111.6100,-78.0500,-88.4500,11.9200,-4.7300,-3.4800,0.0000,0.0000,-0.0000,1886.0000,1886.0000,1500.0000,1999.0000
157012.8280,2.0000,1998.0000,1500.0000,1000.0000,32.0000,410.0000,33.0000,1167.0000,165.0000,-4378.0000,-0.9849,0.0068,0.0222,-0.1716,111.6100,-78.0500,-88.4500,11.9200,-4.7300,-3.4800,0.0000,0.0000,-0.0000,1886.0000,1886.0000,1500.0000,1999.0000
157029.7630,2.0000,1998.0000,1500.0000,1000.0000,124.0000,396.0000,22.0000,1029.0000,416.0000,-10739.0000,-0.9837,0.0058,-0.0399,-0.1750,111.8700,-78.1300,-88.4100,12.0500,-4.6000,-3.1800,0.0000,0.0000,-0.0000,1886.0000,1886.0000,1500.0000,1999.0000
157046.2100,2.0000,1975.0000,1496.0000,1862.0000,189.0000,307.0000,0.0000,1185.0000,851.0000,-14528.0000,-0.9802,-0.0082,-0.0937,-0.1744,112.1200,-78.2000,-88.3800,12.0900,-4.4900,-2.4900,0.0000,0.0000,-0.0000,1071.0000,1065.0000,1500.0000,1969.0000
157062.9310,2.0000,1966.0000,1494.0000,2000.0000,228.0000,208.0000,-16.0000,1510.0000,817.0000,-14389.0000,-0.9757,-0.0322,-0.1352,-0.1696,112.3400,-78.2600,-88.3800,11.9100,-4.4200,-1.5900,0.0000,0.0000,-0.0000,1071.0000,1065.0000,1500.0000,1969.0000
157079.7370,2.0000,1966.0000,1494.0000,2000.0000,241.0000,111.0000,-25.0000,1359.0000,402.0000,-12618.0000,-0.9712,-0.0621,-0.1639,-0.1615,112.6300,-78.3500,-88.4100,11.6900,-4.3100,-0.4800,0.0000,0.0000,-0.0000,1071.0000,1065.0000,1500.0000,1969.0000
157096.6780,2.0000,1966.0000,1494.0000,2000.0000,215.0000,33.0000,-36.0000,1291.0000,420.0000,-10361.0000,-0.9676,-0.0926,-0.1800,-0.1510,112.9100,-78.4300,-88.4400,11.4800,-4.2300,0.4400,0.0000,0.0000,-0.0000,1071.0000,1065.0000,1500.0000,1969.0000
157113.4140,2.0000,1966.0000,1494.0000,2000.0000,181.0000,-46.0000,-42.0000,1095.0000,103.0000,-8661.0000,-0.9658,-0.1201,-0.1832,-0.1389,112.9100,-78.4300,-88.4400,11.4800,-4.2300,0.4400,0.0000,0.0000,-0.0000,1071.0000,1065.0000,1500.0000,1969.0000
157130.1680,2.0000,1966.0000,1494.0000,2000.0000,130.0000,-106.0000,-45.0000,1121.0000,-453.0000,-6661.0000,-0.9658,-0.1428,-0.1762,-0.1261,113.1700,-78.5100,-88.4800,11.3300,-4.1800,1.2300,0.0000,0.0000,-0.0000,1071.0000,1065.0000,1500.0000,1969.0000
157146.6940,2.0000,1966.0000,1494.0000,2000.0000,66.0000,-158.0000,-40.0000,1268.0000,-675.0000,-4325.0000,-0.9678,-0.1579,-0.1598,-0.1140,113.4100,-78.5800,-88.5100,11.2600,-4.0800,1.9100,0.0000,0.0000,-0.0000,1071.0000,1065.0000,1500.0000,1969.0000
157163.2140,2.0000,1964.0000,1497.0000,2000.0000,5.0000,-185.0000,-30.0000,1145.0000,-759.0000,-1975.0000,-0.9713,-0.1647,-0.1370,-0.1034,113.6300,-78.6400,-88.5300,11.3200,-3.9300,2.4200,0.0000,0.0000,-0.0000,1068.0000,1065.0000,1500.0000,1967.0000
157179.9370,2.0000,1964.0000,1497.0000,2000.0000,-61.0000,-199.0000,-12.0000,940.0000,-980.0000,239.0000,-0.9758,-0.1631,-0.1096,-0.0957,113.9200,-78.7200,-88.5400,11.6200,-3.7500,2.8600,0.0000,0.0000,-0.0000,1068.0000,1065.0000,1500.0000,1967.0000
157196.7820,2.0000,1964.0000,1497.0000,2000.0000,-117.0000,-205.0000,10.0000,512.0000,-1204.0000,2403.0000,-0.9809,-0.1526,-0.0790,-0.0915,114.2200,-78.8000,-88.5400,11.9100,-3.4900,3.1300,0.0000,0.0000,-0.0000,1068.0000,1065.0000,1500.0000,1967.0000
157213.7690,2.0000,1964.0000,1497.0000,2000.0000,-148.0000,-205.0000,29.0000,1029.0000,-1059.0000,4674.0000,-0.9854,-0.1361,-0.0465,-0.0907,114.2200,-78.8000,-88.5400,11.9100,-3.4900,3.1300,0.0000,0.0000,-0.0000,1068.0000,1065.0000,1500.0000,1967.0000
157230.3690,2.0000,1964.0000,1497.0000,2000.0000,-153.0000,-203.0000,42.0000,1429.0000,-871.0000,6794.0000,-0.9887,-0.1175,-0.0149,-0.0924,114.4900,-78.8600,-88.5100,12.1700,-3.1900,3.2000,0.0000,0.0000,-0.0000,1068.0000,1065.0000,1500.0000,1967.0000
157247.1730,2.0000,1996.0000,1000.0000,1744.0000,-158.0000,-192.0000,53.0000,1558.0000,-1074.0000,8795.0000,-0.9905,-0.0976,0.0169,-0.0957,114.7600,-78.9100,-88.4700,12.4300,-2.9000,3.1100,0.0000,0.0000,-0.0000,1668.0000,1094.0000,1500.0000,1998.0000
157263.9830,2.0000,1997.0000,1000.0000,1740.0000,-157.0000,-175.0000,59.0000,1563.0000,-909.0000,9878.0000,-0.9909,-0.0768,0.0466,-0.1003,115.0100,-78.9500,-88.4000,12.6100,-2.6200,2.7500,0.0000,0.0000,-0.0000,1668.0000,1094.0000,1500.0000,1998.0000
157280.7210,2.0000,1997.0000,1000.0000,1740.0000,-134.0000,-169.0000,61.0000,1545.0000,-791.0000,9979.0000,-0.9899,-0.0574,0.0743,-0.1057,115.3400,-79.0100,-88.3400,12.8500,-2.4600,2.2300,0.0000,0.0000,-0.0000,1668.0000,1094.0000,1500.0000,1998.0000
157297.3010,2.0000,1997.0000,1000.0000,1740.0000,-88.0000,-171.0000,55.0000,1514.0000,-789.0000,10044.0000,-0.9878,-0.0432,0.1005,-0.1112,115.3400,-79.0100,-88.3400,12.8500,-2.4600,2.2300,0.0000,0.0000,-0.0000,1668.0000,1094.0000,1500.0000,1998.0000
157313.9590,2.0000,1997.0000,1000.0000,1740.0000,-48.0000,-167.0000,47.0000,1591.0000,-831.0000,10494.0000,-0.9845,-0.0357,0.1264,-0.1161,115.6600,-79.0700,-88.2700,12.9700,-2.3600,1.6500,0.0000,0.0000,-0.0000,1668.0000,1094.0000,1500.0000,1998.0000
157331.1560,2.0000,1997.0000,1000.0000,1740.0000,-17.0000,-160.0000,38.0000,1742.0000,-598.0000,10812.0000,-0.9805,-0.0331,0.1515,-0.1204,115.9500,-79.1200,-88.2100,12.9700,-2.2600,0.9700,0.0000,0.0000,-0.0000,1668.0000,1094.0000,1500.0000,1998.0000
157347.7270,2.0000,1997.0000,1313.0000,1013.0000,-13.0000,-145.0000,28.0000,1687.0000,-396.0000,11073.0000,-0.9765,-0.0329,0.1737,-0.1235,116.2200,-79.1600,-88.1700,12.9000,-2.1900,0.2500,0.0000,0.0000,-0.0000,1839.0000,1653.0000,1500.0000,1998.0000
157364.3990,2.0000,1997.0000,1313.0000,1011.0000,-13.0000,-126.0000,18.0000,1409.0000,-255.0000,11079.0000,-0.9725,-0.0330,0.1937,-0.1253,116.4700,-79.2000,-88.1300,12.7500,-2.1300,-0.5100,0.0000,0.0000,-0.0000,1839.0000,1653.0000,1500.0000,1998.0000
157380.9880,2.0000,1997.0000,1313.0000,1011.0000,-12.0000,-81.0000,15.0000,1538.0000,-397.0000,11078.0000,-0.9693,-0.0327,0.2087,-0.1263,116.7700,-79.2500,-88.1100,12.6400,-2.0700,-1.2700,0.0000,0.0000,-0.0000,1839.0000,1653.0000,1500.0000,1998.0000
157397.7910,2.0000,1997.0000,1313.0000,1011.0000,3.0000,-33.0000,11.0000,1593.0000,-572.0000,10621.0000,-0.9674,-0.0323,0.2167,-0.1273,116.7700,-79.2500,-88.1100,12.6400,-2.0700,-1.2700,0.0000,0.0000,-0.0000,1839.0000,1653.0000,1500.0000,1998.0000
157414.5110,2.0000,1997.0000,1313.0000,1011.0000,51.0000,24.0000,7.0000,1220.0000,-501.0000,9654.0000,-0.9671,-0.0353,0.2165,-0.1288,117.0600,-79.2900,-88.1000,12.5200,-2.0000,-2.0400,0.0000,0.0000,-0.0000,1839.0000,1653.0000,1500.0000,1998.0000
157431.4570,2.0000,1997.0000,1313.0000,1011.0000,122.0000,88.0000,5.0000,1091.0000,-558.0000,8609.0000,-0.9682,-0.0466,0.2071,-0.1321,117.3300,-79.3300,-88.1000,12.4100,-1.9300,-2.7100,0.0000,0.0000,-0.0000,1839.0000,1653.0000,1500.0000,1998.0000
157448.0670,2.0000,1997.0000,1313.0000,1011.0000,192.0000,152.0000,1.0000,1176.0000,-387.0000,6889.0000,-0.9705,-0.0662,0.1868,-0.1376,117.5900,-79.3700,-88.1200,12.3500,-1.8500,-3.2800,0.0000,0.0000,-0.0000,1839.0000,1653.0000,1500.0000,1998.0000
157464.8760,2.0000,1996.0000,2000.0000,1140.0000,263.0000,199.0000,-4.0000,1342.0000,-114.0000,4207.0000,-0.9724,-0.0945,0.1565,-0.1448,117.8500,-79.4100,-88.1500,12.4000,-1.8100,-3.6600,0.0000,0.0000,-0.0000,1400.0000,1960.0000,1500.0000,1997.0000
