t_ms,msp,motor,servo0,servo1,gyro_p,gyro_q,gyro_r,acc_x,acc_y,acc_z,qw,qx,qy,qz,pos_n,pos_e,pos_d,vel_n,vel_e,vel_d,tgtpos_n,tgtpos_e,tgtpos_d,rcData0,rcData1,rcData2,rcData3
227119.8450,3.0000,1511.0000,1461.0000,1519.0000,5.0000,-5.0000,-20.0000,315.0000,-248.0000,1946.0000,0.0406,0.1971,0.1686,0.9649,172.0400,-27.7400,-83.8300,-17.5500,1.2000,-5.1600,0.0000,0.0000,-0.0000,1500.0000,1500.0000,1500.0000,1538.0000
227136.4870,3.0000,1510.0000,1461.0000,1519.0000,4.0000,-4.0000,-16.0000,329.0000,-259.0000,1908.0000,0.0431,0.1973,0.1702,0.9645,171.6800,-27.7200,-83.9200,-17.5000,1.0800,-5.1300,0.0000,0.0000,-0.0000,1500.0000,1500.0000,1500.0000,1537.0000
227153.1720,3.0000,1511.0000,1461.0000,1519.0000,4.0000,-4.0000,-18.0000,341.0000,-239.0000,1875.0000,0.0455,0.1976,0.1715,0.9641,171.3200,-27.7000,-84.0200,-17.4400,0.9800,-5.1000,0.0000,0.0000,-0.0000,1500.0000,1498.0000,1500.0000,1538.0000
227169.9800,3.0000,1510.0000,1459.0000,1519.0000,3.0000,-3.0000,-13.0000,424.0000,-269.0000,1956.0000,0.0477,0.1981,0.1725,0.9637,170.9500,-27.6900,-84.1100,-17.4000,0.8600,-5.0700,0.0000,0.0000,-0.0000,1500.0000,1500.0000,1500.0000,1537.0000
227186.8870,3.0000,1510.0000,1459.0000,1519.0000,4.0000,-2.0000,-14.0000,403.0000,-250.0000,1926.0000,0.0496,0.1983,0.1734,0.9634,170.5800,-27.6800,-84.2100,-17.3600,0.7300,-5.0500,0.0000,0.0000,-0.0000,1500.0000,1498.0000,1500.0000,1537.0000
227203.4200,3.0000,1510.0000,1461.0000,1521.0000,6.0000,-2.0000,-13.0000,381.0000,-167.0000,1773.0000,0.0512,0.1984,0.1745,0.9631,170.5800,-27.6800,-84.2100,-17.3600,0.7300,-5.0500,0.0000,0.0000,-0.0000,1500.0000,1500.0000,1500.0000,1537.0000
227220.0490,3.0000,1510.0000,1462.0000,1522.0000,8.0000,-2.0000,-11.0000,322.0000,-112.0000,1626.0000,0.0528,0.1984,0.1761,0.9627,170.2200,-27.6700,-84.3000,-17.3200,0.6200,-5.0200,0.0000,0.0000,-0.0000,1500.0000,1500.0000,1500.0000,1537.0000
227236.6500,3.0000,1510.0000,1462.0000,1522.0000,9.0000,-2.0000,-12.0000,347.0000,-120.0000,1641.0000,0.0544,0.1985,0.1777,0.9623,169.8600,-27.6600,-84.3900,-17.2700,0.5200,-4.9700,0.0000,0.0000,-0.0000,1500.0000,1498.0000,1500.0000,1538.0000
227253.3190,3.0000,1511.0000,1462.0000,1522.0000,9.0000,-1.0000,-12.0000,383.0000,-355.0000,1945.0000,0.0558,0.1984,0.1791,0.9620,169.5200,-27.6500,-84.4800,-17.2200,0.4300,-4.9200,0.0000,0.0000,-0.0000,1500.0000,1498.0000,1500.0000,1538.0000
227270.1770,3.0000,1509.0000,1462.0000,1522.0000,7.0000,-1.0000,-12.0000,423.0000,-308.0000,1921.0000,0.0572,0.1984,0.1804,0.9617,169.1500,-27.6500,-84.5800,-17.1800,0.3000,-4.8900,0.0000,0.0000,-0.0000,1500.0000,1498.0000,1500.0000,1536.0000
227286.8820,3.0000,1510.0000,1460.0000,1522.0000,6.0000,0.0000,-13.0000,397.0000,-252.0000,1809.0000,0.0586,0.1985,0.1816,0.9613,168.7800,-27.6500,-84.6700,-17.1300,0.1700,-4.8600,0.0000,0.0000,-0.0000,1500.0000,1500.0000,1500.0000,1538.0000
227303.4140,3.0000,1510.0000,1458.0000,1522.0000,5.0000,2.0000,-11.0000,375.0000,-203.0000,1639.0000,0.0602,0.1982,0.1825,0.9611,168.7800,-27.6500,-84.6700,-17.1300,0.1700,-4.8600,0.0000,0.0000,-0.0000,1498.0000,1500.0000,1500.0000,1537.0000
227320.0720,3.0000,1510.0000,1460.0000,1522.0000,6.0000,0.0000,-12.0000,404.0000,-120.0000,1520.0000,0.0618,0.1977,0.1836,0.9609,168.4300,-27.6500,-84.7600,-17.0900,0.0600,-4.8100,0.0000,0.0000,-0.0000,1498.0000,1500.0000,1500.0000,1537.0000
227336.7910,3.0000,1511.0000,1459.0000,1523.0000,5.0000,2.0000,-14.0000,365.0000,-78.0000,1444.0000,0.0634,0.1973,0.1850,0.9606,168.0800,-27.6600,-84.8500,-17.0500,-0.0200,-4.7600,0.0000,0.0000,-0.0000,1500.0000,1498.0000,1500.0000,1538.0000
227353.7020,3.0000,1511.0000,1457.0000,1521.0000,2.0000,3.0000,-15.0000,408.0000,-102.0000,1554.0000,0.0653,0.1968,0.1860,0.9604,167.7400,-27.6600,-84.9400,-17.0000,-0.1000,-4.7000,0.0000,0.0000,-0.0000,1500.0000,1498.0000,1500.0000,1538.0000
227370.3430,3.0000,1511.0000,1453.0000,1517.0000,-4.0000,2.0000,-15.0000,405.0000,-114.0000,1680.0000,0.0673,0.1964,0.1861,0.9603,167.3800,-27.6700,-85.0400,-16.9700,-0.2000,-4.6500,0.0000,0.0000,-0.0000,1500.0000,1500.0000,1500.0000,1538.0000
227386.9390,3.0000,1510.0000,1450.0000,1516.0000,-8.0000,4.0000,-15.0000,416.0000,-195.0000,1798.0000,0.0695,0.1957,0.1856,0.9604,167.3800,-27.6700,-85.0400,-16.9700,-0.2000,-4.6500,0.0000,0.0000,-0.0000,1500.0000,1498.0000,1500.0000,1537.0000
227403.5660,3.0000,1510.0000,1452.0000,1516.0000,-7.0000,3.0000,-17.0000,426.0000,-219.0000,1786.0000,0.0720,0.1949,0.1848,0.9606,167.0200,-27.6800,-85.1300,-16.9300,-0.3100,-4.6100,0.0000,0.0000,-0.0000,1500.0000,1500.0000,1500.0000,1537.0000
227420.3030,3.0000,1509.0000,1454.0000,1518.0000,-4.0000,1.0000,-19.0000,436.0000,-108.0000,1683.0000,0.0746,0.1941,0.1846,0.9606,166.6800,-27.6900,-85.2100,-16.8800,-0.4300,-4.5700,0.0000,0.0000,-0.0000,1500.0000,1500.0000,1500.0000,1536.0000
227437.0070,3.0000,1510.0000,1455.0000,1519.0000,-3.0000,2.0000,-21.0000,434.0000,-109.0000,1698.0000,0.0775,0.1934,0.1847,0.9605,166.3300,-27.7100,-85.3000,-16.8200,-0.5300,-4.5300,0.0000,0.0000,-0.0000,1498.0000,1500.0000,1500.0000,1537.0000
227453.5350,3.0000,1510.0000,1455.0000,1519.0000,-3.0000,3.0000,-22.0000,471.0000,-131.0000,1733.0000,0.0806,0.1925,0.1850,0.9603,166.0100,-27.7300,-85.3900,-16.7700,-0.6200,-4.5000,0.0000,0.0000,-0.0000,1500.0000,1498.0000,1500.0000,1537.0000
227470.1900,3.0000,1510.0000,1457.0000,1521.0000,0.0000,1.0000,-24.0000,460.0000,-94.0000,1622.0000,0.0839,0.1918,0.1856,0.9601,165.6500,-27.7500,-85.4800,-16.7300,-0.7200,-4.4600,0.0000,0.0000,-0.0000,1500.0000,1500.0000,1500.0000,1537.0000
227486.7920,3.0000,1509.0000,1456.0000,1520.0000,0.0000,1.0000,-26.0000,493.0000,-89.0000,1608.0000,0.0874,0.1911,0.1864,0.9597,165.6500,-27.7500,-85.4800,-16.7300,-0.7200,-4.4600,0.0000,0.0000,-0.0000,1500.0000,1498.0000,1500.0000,1536.0000
227503.4530,3.0000,1509.0000,1456.0000,1520.0000,0.0000,2.0000,-26.0000,471.0000,-152.0000,1678.0000,0.0910,0.1903,0.1873,0.9594,165.3000,-27.7700,-85.5700,-16.7000,-0.8200,-4.4200,0.0000,0.0000,-0.0000,1500.0000,1498.0000,1500.0000,1537.0000
227520.0050,3.0000,1509.0000,1456.0000,1520.0000,-1.0000,1.0000,-28.0000,421.0000,-139.0000,1647.0000,0.0948,0.1893,0.1882,0.9590,164.9600,-27.7900,-85.6600,-16.6600,-0.9200,-4.3800,0.0000,0.0000,-0.0000,1500.0000,1500.0000,1500.0000,1536.0000
227536.6590,3.0000,1509.0000,1456.0000,1520.0000,0.0000,1.0000,-28.0000,515.0000,-204.0000,1711.0000,0.0987,0.1884,0.1892,0.9586,164.6300,-27.8200,-85.7400,-16.6100,-1.0200,-4.3300,0.0000,0.0000,-0.0000,1500.0000,1500.0000,1500.0000,1536.0000
227553.4790,3.0000,1509.0000,1456.0000,1520.0000,0.0000,1.0000,-30.0000,528.0000,-273.0000,1774.0000,0.1028,0.1874,0.1903,0.9582,164.3100,-27.8400,-85.8300,-16.5600,-1.1200,-4.2900,0.0000,0.0000,-0.0000,1500.0000,1498.0000,1500.0000,1536.0000
227570.3710,3.0000,1509.0000,1455.0000,1521.0000,-1.0000,2.0000,-29.0000,471.0000,-236.0000,1708.0000,0.1069,0.1865,0.1911,0.9577,163.9600,-27.8700,-85.9100,-16.5300,-1.2400,-4.2500,0.0000,0.0000,-0.0000,1500.0000,1498.0000,1500.0000,1536.0000
227586.9210,3.0000,1511.0000,1455.0000,1521.0000,0.0000,3.0000,-30.0000,524.0000,-228.0000,1674.0000,0.1109,0.1855,0.1921,0.9573,163.9600,-27.8700,-85.9100,-16.5300,-1.2400,-4.2500,0.0000,0.0000,-0.0000,1500.0000,1498.0000,1500.0000,1538.0000
227603.5720,3.0000,1510.0000,1457.0000,1521.0000,1.0000,2.0000,-29.0000,538.0000,-269.0000,1701.0000,0.1149,0.1846,0.1931,0.9568,163.6200,-27.9000,-86.0000,-16.4900,-1.3600,-4.2100,0.0000,0.0000,-0.0000,1500.0000,1498.0000,1500.0000,1537.0000
227620.3570,3.0000,1510.0000,1458.0000,1522.0000,3.0000,1.0000,-28.0000,435.0000,-304.0000,1677.0000,0.1188,0.1836,0.1944,0.9562,163.2800,-27.9400,-86.0800,-16.4500,-1.4700,-4.1600,0.0000,0.0000,-0.0000,1500.0000,1500.0000,1500.0000,1537.0000
227636.9040,3.0000,1510.0000,1460.0000,1524.0000,7.0000,1.0000,-28.0000,447.0000,-218.0000,1567.0000,0.1225,0.1828,0.1961,0.9556,162.9600,-27.9800,-86.1600,-16.3900,-1.5800,-4.1000,0.0000,0.0000,-0.0000,1500.0000,1500.0000,1500.0000,1537.0000
227653.7590,3.0000,1509.0000,1462.0000,1526.0000,10.0000,1.0000,-27.0000,459.0000,-197.0000,1482.0000,0.1261,0.1821,0.1984,0.9548,162.6400,-28.0100,-86.2500,-16.3400,-1.6800,-4.0400,0.0000,0.0000,-0.0000,1500.0000,1500.0000,1500.0000,1536.0000
227670.2210,3.0000,1510.0000,1462.0000,1526.0000,10.0000,0.0000,-26.0000,388.0000,-189.0000,1376.0000,0.1296,0.1812,0.2011,0.9539,162.6400,-28.0100,-86.2500,-16.3400,-1.6800,-4.0400,0.0000,0.0000,-0.0000,1500.0000,1500.0000,1500.0000,1538.0000
227686.8330,3.0000,1511.0000,1462.0000,1526.0000,11.0000,0.0000,-25.0000,521.0000,-228.0000,1406.0000,0.1329,0.1805,0.2036,0.9531,162.3000,-28.0500,-86.3300,-16.3200,-1.7800,-3.9700,0.0000,0.0000,-0.0000,1500.0000,1500.0000,1500.0000,1538.0000
227703.3390,3.0000,1510.0000,1463.0000,1527.0000,12.0000,1.0000,-23.0000,532.0000,-187.0000,1389.0000,0.1358,0.1800,0.2064,0.9521,161.9600,-28.1000,-86.4100,-16.3000,-1.8800,-3.9000,0.0000,0.0000,-0.0000,1500.0000,1500.0000,1500.0000,1537.0000
227719.9200,3.0000,1510.0000,1462.0000,1526.0000,11.0000,0.0000,-22.0000,528.0000,-292.0000,1509.0000,0.1386,0.1795,0.2090,0.9512,161.6400,-28.1400,-86.4800,-16.2800,-1.9700,-3.8300,0.0000,0.0000,-0.0000,1500.0000,1500.0000,1500.0000,1538.0000
227736.6830,3.0000,1511.0000,1462.0000,1526.0000,11.0000,1.0000,-20.0000,565.0000,-285.0000,1575.0000,0.1412,0.1790,0.2114,0.9504,161.3200,-28.1900,-86.5600,-16.2400,-2.0800,-3.7700,0.0000,0.0000,-0.0000,1500.0000,1498.0000,1500.0000,1538.0000
227753.2140,3.0000,1510.0000,1462.0000,1526.0000,10.0000,0.0000,-19.0000,470.0000,-292.0000,1531.0000,0.1435,0.1785,0.2137,0.9497,161.0000,-28.2300,-86.6400,-16.2000,-2.1800,-3.7100,0.0000,0.0000,-0.0000,1498.0000,1500.0000,1500.0000,1536.0000
227769.8860,3.0000,1509.0000,1463.0000,1525.0000,9.0000,-1.0000,-16.0000,514.0000,-309.0000,1453.0000,0.1455,0.1788,0.2155,0.9489,161.0000,-28.2300,-86.6400,-16.2000,-2.1800,-3.7100,0.0000,0.0000,-0.0000,1498.0000,1500.0000,1500.0000,1536.0000
227786.6040,3.0000,1510.0000,1462.0000,1524.0000,7.0000,0.0000,-15.0000,505.0000,-206.0000,1373.0000,0.1473,0.1790,0.2172,0.9482,160.6600,-28.2900,-86.7100,-16.1700,-2.3000,-3.6400,0.0000,0.0000,-0.0000,1500.0000,1498.0000,1500.0000,1537.0000
227803.1430,3.0000,1511.0000,1458.0000,1522.0000,2.0000,1.0000,-14.0000,552.0000,-186.0000,1377.0000,0.1489,0.1789,0.2183,0.9477,160.3300,-28.3400,-86.7900,-16.1500,-2.4000,-3.5600,0.0000,0.0000,-0.0000,1500.0000,1500.0000,1500.0000,1538.0000
227820.0460,3.0000,1511.0000,1457.0000,1521.0000,0.0000,0.0000,-13.0000,480.0000,-195.0000,1304.0000,0.1506,0.1787,0.2187,0.9474,160.0100,-28.4000,-86.8600,-16.1200,-2.4900,-3.4900,0.0000,0.0000,-0.0000,1500.0000,1498.0000,1500.0000,1538.0000
227836.6180,3.0000,1511.0000,1456.0000,1520.0000,-1.0000,1.0000,-11.0000,443.0000,-163.0000,1180.0000,0.1522,0.1785,0.2190,0.9471,159.6900,-28.4500,-86.9300,-16.0900,-2.5700,-3.4000,0.0000,0.0000,-0.0000,1500.0000,1500.0000,1500.0000,1538.0000
227853.3910,3.0000,1510.0000,1457.0000,1519.0000,-2.0000,-1.0000,-11.0000,440.0000,-227.0000,1170.0000,0.1536,0.1781,0.2190,0.9469,159.6900,-28.4500,-86.9300,-16.0900,-2.5700,-3.4000,0.0000,0.0000,-0.0000,1500.0000,1500.0000,1500.0000,1537.0000
227870.0500,3.0000,1511.0000,1456.0000,1518.0000,-4.0000,-1.0000,-10.0000,465.0000,-88.0000,1051.0000,0.1550,0.1787,0.2188,0.9467,159.3800,-28.5100,-87.0000,-16.0500,-2.6500,-3.3100,0.0000,0.0000,-0.0000,1500.0000,1500.0000,1500.0000,1538.0000
227886.9240,2.0000,1000.0000,2000.0000,1877.0000,-7.0000,1.0000,-10.0000,529.0000,-115.0000,1113.0000,0.1565,0.1789,0.2182,0.9465,159.0400,-28.5700,-87.0600,-16.0300,-2.7400,-3.2100,0.0000,0.0000,-0.0000,1000.0000,1625.0000,1500.0000,1039.0000
227903.8180,2.0000,1000.0000,2000.0000,1877.0000,-7.0000,-1.0000,-10.0000,614.0000,-108.0000,1194.0000,0.1580,0.1788,0.2174,0.9465,158.7200,-28.6300,-87.1300,-16.0100,-2.8300,-3.1200,0.0000,0.0000,-0.0000,1000.0000,1625.0000,1500.0000,1039.0000
227920.7920,2.0000,1000.0000,2000.0000,1877.0000,-25.0000,-2.0000,-9.0000,336.0000,-144.0000,1271.0000,0.1598,0.1788,0.2155,0.9466,158.4000,-28.7000,-87.1900,-15.9800,-2.9100,-3.0400,0.0000,0.0000,-0.0000,1000.0000,1625.0000,1500.0000,1039.0000
227937.2850,2.0000,1000.0000,2000.0000,1877.0000,-69.0000,3.0000,-5.0000,60.0000,-69.0000,1529.0000,0.1620,0.1775,0.2095,0.9478,158.0900,-28.7600,-87.2600,-15.9200,-2.9900,-2.9600,0.0000,0.0000,-0.0000,1000.0000,1625.0000,1500.0000,1039.0000
227954.1480,2.0000,1000.0000,2000.0000,1877.0000,-128.0000,16.0000,-1.0000,-152.0000,24.0000,1930.0000,0.1649,0.1735,0.1959,0.9509,158.0900,-28.7600,-87.2600,-15.9200,-2.9900,-2.9600,0.0000,0.0000,-0.0000,1000.0000,1625.0000,1500.0000,1039.0000
227970.8800,2.0000,1000.0000,2000.0000,1877.0000,-187.0000,38.0000,5.0000,-271.0000,74.0000,2238.0000,0.1682,0.1653,0.1748,0.9559,157.7800,-28.8200,-87.3200,-15.8200,-3.0500,-2.9200,0.0000,0.0000,-0.0000,1000.0000,1625.0000,1500.0000,1039.0000
227987.9320,2.0000,1000.0000,2000.0000,1877.0000,-239.0000,63.0000,7.0000,-304.0000,161.0000,1974.0000,0.1717,0.1524,0.1449,0.9624,157.4500,-28.8900,-87.3800,-15.7300,-3.1200,-2.9100,0.0000,0.0000,-0.0000,1000.0000,1625.0000,1500.0000,1039.0000
228004.7200,2.0000,1000.0000,2000.0000,1877.0000,-276.0000,85.0000,9.0000,-395.0000,214.0000,1591.0000,0.1750,0.1358,0.1104,0.9689,157.1400,-28.9600,-87.4400,-15.6400,-3.1700,-2.9100,0.0000,0.0000,-0.0000,1000.0000,1625.0000,1500.0000,1039.0000
228021.5750,2.0000,1000.0000,2000.0000,1877.0000,-305.0000,107.0000,6.0000,-422.0000,226.0000,1064.0000,0.1782,0.1150,0.0716,0.9746,156.8300,-29.0300,-87.5100,-15.5600,-3.1800,-2.8700,0.0000,0.0000,-0.0000,1000.0000,1625.0000,1500.0000,1039.0000
228038.5430,2.0000,1000.0000,2000.0000,1877.0000,-318.0000,123.0000,9.0000,-477.0000,256.0000,615.0000,0.1814,0.0900,0.0291,0.9789,156.5300,-29.1000,-87.5700,-15.5000,-3.1800,-2.7800,0.0000,0.0000,-0.0000,1000.0000,1625.0000,1500.0000,1039.0000
228055.4340,2.0000,1000.0000,2000.0000,1877.0000,-333.0000,137.0000,6.0000,-523.0000,360.0000,80.0000,0.1843,0.0626,-0.0141,0.9808,156.5300,-29.1000,-87.5700,-15.5000,-3.1800,-2.7800,0.0000,0.0000,-0.0000,1000.0000,1625.0000,1500.0000,1039.0000
228072.2010,2.0000,1689.0000,1000.0000,1177.0000,-334.0000,146.0000,6.0000,-488.0000,386.0000,-437.0000,0.1872,0.0333,-0.0580,0.9800,156.2400,-29.1700,-87.6400,-15.4500,-3.1700,-2.6500,0.0000,0.0000,-0.0000,1968.0000,1355.0000,1500.0000,1706.0000
228088.9060,2.0000,1689.0000,1000.0000,1177.0000,-342.0000,153.0000,1.0000,-407.0000,430.0000,-1056.0000,0.1899,0.0029,-0.1015,0.9766,155.9200,-29.2500,-87.7100,-15.4300,-3.1900,-2.4600,0.0000,0.0000,-0.0000,1968.0000,1355.0000,1500.0000,1706.0000
228105.6100,2.0000,1689.0000,1000.0000,1177.0000,-310.0000,150.0000,1.0000,-97.0000,424.0000,-1538.0000,0.1926,-0.0279,-0.1438,0.9703,155.6000,-29.3200,-87.7700,-15.4000,-3.2300,-2.2100,0.0000,0.0000,-0.0000,1968.0000,1355.0000,1500.0000,1706.0000
228122.3020,2.0000,1689.0000,1000.0000,1177.0000,-273.0000,147.0000,-5.0000,330.0000,288.0000,-1926.0000,0.1953,-0.0574,-0.1810,0.9622,155.3000,-29.4000,-87.8300,-15.3800,-3.3000,-1.9100,0.0000,0.0000,-0.0000,1968.0000,1355.0000,1500.0000,1706.0000
228138.9140,2.0000,1689.0000,1000.0000,1177.0000,-207.0000,142.0000,-14.0000,574.0000,177.0000,-2251.0000,0.1984,-0.0843,-0.2107,0.9535,155.0100,-29.4700,-87.8900,-15.3600,-3.4000,-1.5900,0.0000,0.0000,-0.0000,1968.0000,1355.0000,1500.0000,1706.0000
228155.6190,2.0000,1689.0000,1000.0000,1177.0000,-116.0000,131.0000,-26.0000,667.0000,68.0000,-2535.0000,0.2037,-0.1072,-0.2293,0.9457,155.0100,-29.4700,-87.8900,-15.3600,-3.4000,-1.5900,0.0000,0.0000,-0.0000,1968.0000,1355.0000,1500.0000,1706.0000
228172.5850,2.0000,1000.0000,1512.0000,2000.0000,-9.0000,118.0000,-41.0000,674.0000,115.0000,-2862.0000,0.2118,-0.1254,-0.2349,0.9403,154.7200,-29.5400,-87.9400,-15.3300,-3.5400,-1.2500,0.0000,0.0000,-0.0000,1044.0000,1056.0000,1500.0000,1003.0000
228189.1210,2.0000,1000.0000,1512.0000,2000.0000,78.0000,102.0000,-55.0000,416.0000,161.0000,-3232.0000,0.2230,-0.1373,-0.2272,0.9380,154.4000,-29.6300,-87.9900,-15.2900,-3.6900,-0.8800,0.0000,0.0000,-0.0000,1044.0000,1056.0000,1500.0000,1003.0000
228205.9120,2.0000,1000.0000,1512.0000,2000.0000,121.0000,81.0000,-66.0000,307.0000,248.0000,-3382.0000,0.2366,-0.1444,-0.2110,0.9373,154.0900,-29.7100,-88.0300,-15.1900,-3.8200,-0.4500,0.0000,0.0000,-0.0000,1044.0000,1056.0000,1500.0000,1003.0000
228222.8350,2.0000,1000.0000,1512.0000,2000.0000,111.0000,58.0000,-70.0000,125.0000,264.0000,-3295.0000,0.2508,-0.1475,-0.1932,0.9370,153.7900,-29.7900,-88.0700,-15.0800,-3.9100,-0.0100,0.0000,0.0000,-0.0000,1044.0000,1056.0000,1500.0000,1003.0000
228239.6150,2.0000,1000.0000,1512.0000,2000.0000,66.0000,30.0000,-65.0000,14.0000,165.0000,-3125.0000,0.2632,-0.1485,-0.1810,0.9359,153.7900,-29.7900,-88.0700,-15.0800,-3.9100,-0.0100,0.0000,0.0000,-0.0000,1044.0000,1056.0000,1500.0000,1003.0000
228256.5010,2.0000,1000.0000,1508.0000,2000.0000,2.0000,1.0000,-53.0000,-158.0000,-1.0000,-2882.0000,0.2724,-0.1476,-0.1770,0.9342,153.4900,-29.8800,-88.0900,-14.9500,-3.9800,0.4100,0.0000,0.0000,-0.0000,1033.0000,1037.0000,1500.0000,1005.0000
228273.1640,2.0000,1000.0000,1504.0000,2000.0000,-51.0000,-30.0000,-42.0000,-259.0000,-310.0000,-2138.0000,0.2776,-0.1447,-0.1817,0.9322,153.2000,-29.9600,-88.1100,-14.8300,-4.0400,0.8200,0.0000,0.0000,-0.0000,1033.0000,1037.0000,1500.0000,1005.0000
228289.9840,2.0000,1000.0000,1504.0000,2000.0000,-80.0000,-51.0000,-27.0000,-451.0000,-365.0000,-848.0000,0.2795,-0.1410,-0.1928,0.9299,152.8900,-30.0500,-88.1300,-14.7400,-4.1200,1.1500,0.0000,0.0000,-0.0000,1033.0000,1037.0000,1500.0000,1005.0000
228306.8110,2.0000,1000.0000,1504.0000,2000.0000,-88.0000,-67.0000,-11.0000,-446.0000,-423.0000,200.0000,0.2783,-0.1363,-0.2065,0.9281,152.6000,-30.1400,-88.1500,-14.6900,-4.1500,1.3700,0.0000,0.0000,-0.0000,1033.0000,1037.0000,1500.0000,1005.0000
228323.9020,2.0000,1000.0000,1504.0000,2000.0000,-103.0000,-80.0000,-4.0000,-410.0000,-462.0000,1031.0000,0.2749,-0.1303,-0.2227,0.9262,152.3100,-30.2300,-88.1600,-14.6800,-4.1500,1.4900,0.0000,0.0000,-0.0000,1033.0000,1037.0000,1500.0000,1005.0000
228340.6280,2.0000,1000.0000,1504.0000,2000.0000,-114.0000,-86.0000,7.0000,-348.0000,-456.0000,1423.0000,0.2699,-0.1240,-0.2403,0.9241,152.3100,-30.2300,-88.1600,-14.6800,-4.1500,1.4900,0.0000,0.0000,-0.0000,1033.0000,1037.0000,1500.0000,1005.0000
228357.1530,2.0000,1000.0000,1504.0000,2000.0000,-110.0000,-86.0000,17.0000,-254.0000,-402.0000,1659.0000,0.2636,-0.1174,-0.2581,0.9220,152.0400,-30.3100,-88.1800,-14.6900,-4.1200,1.5500,0.0000,0.0000,-0.0000,1033.0000,1037.0000,1500.0000,1005.0000
228374.1710,2.0000,1000.0000,1512.0000,2000.0000,-112.0000,-86.0000,24.0000,-274.0000,-366.0000,2037.0000,0.2558,-0.1108,-0.2763,0.9197,151.7500,-30.3900,-88.2000,-14.7100,-4.1000,1.6100,0.0000,0.0000,-0.0000,1044.0000,1056.0000,1500.0000,1003.0000
228390.9290,2.0000,1000.0000,1512.0000,2000.0000,-116.0000,-90.0000,31.0000,-309.0000,-428.0000,2752.0000,0.2471,-0.1045,-0.2940,0.9174,151.4400,-30.4900,-88.2100,-14.7300,-4.1100,1.6500,0.0000,0.0000,-0.0000,1044.0000,1056.0000,1500.0000,1003.0000
228408.0230,2.0000,1000.0000,1512.0000,2000.0000,-102.0000,-89.0000,40.0000,-278.0000,-426.0000,3092.0000,0.2374,-0.0981,-0.3114,0.9149,151.1500,-30.5800,-88.2100,-14.7500,-4.0800,1.6300,0.0000,0.0000,-0.0000,1044.0000,1056.0000,1500.0000,1003.0000
228425.0070,2.0000,1000.0000,1512.0000,2000.0000,-97.0000,-88.0000,45.0000,-246.0000,-410.0000,3589.0000,0.2266,-0.0918,-0.3282,0.9124,150.8600,-30.6600,-88.2200,-14.7800,-4.0000,1.5800,0.0000,0.0000,-0.0000,1044.0000,1056.0000,1500.0000,1003.0000
228441.9620,2.0000,1000.0000,1512.0000,2000.0000,-98.0000,-86.0000,50.0000,-200.0000,-369.0000,3737.0000,0.2150,-0.0858,-0.3434,0.9102,150.8600,-30.6600,-88.2200,-14.7800,-4.0000,1.5800,0.0000,0.0000,-0.0000,1044.0000,1056.0000,1500.0000,1003.0000
228458.5030,2.0000,1000.0000,1512.0000,2000.0000,-97.0000,-83.0000,55.0000,-169.0000,-392.0000,3933.0000,0.2032,-0.0805,-0.3580,0.9078,150.5800,-30.7400,-88.2100,-14.8100,-3.8800,1.4900,0.0000,0.0000,-0.0000,1044.0000,1056.0000,1500.0000,1003.0000
228475.1810,2.0000,1000.0000,1512.0000,2000.0000,-99.0000,-79.0000,60.0000,-156.0000,-384.0000,4054.0000,0.1909,-0.0759,-0.3723,0.9051,150.2900,-30.8200,-88.2100,-14.8600,-3.7400,1.4000,0.0000,0.0000,-0.0000,1044.0000,1056.0000,1500.0000,1003.0000
228491.8110,2.0000,1000.0000,1512.0000,2000.0000,-95.0000,-74.0000,65.0000,-136.0000,-370.0000,4110.0000,0.1783,-0.0723,-0.3863,0.9021,149.9800,-30.9000,-88.2000,-14.9100,-3.5600,1.3000,0.0000,0.0000,-0.0000,1044.0000,1056.0000,1500.0000,1003.0000
228508.5380,2.0000,1000.0000,1512.0000,2000.0000,-99.0000,-69.0000,68.0000,-149.0000,-349.0000,4097.0000,0.1654,-0.0695,-0.4002,0.8987,149.6800,-30.9700,-88.1900,-14.9600,-3.3600,1.2100,0.0000,0.0000,-0.0000,1044.0000,1056.0000,1500.0000,1003.0000
228525.6950,2.0000,1000.0000,1512.0000,2000.0000,-97.0000,-64.0000,74.0000,-168.0000,-299.0000,4110.0000,0.1516,-0.0676,-0.4142,0.8949,149.3900,-31.0400,-88.1800,-14.9900,-3.1600,1.1200,0.0000,0.0000,-0.0000,1044.0000,1056.0000,1500.0000,1003.0000
228542.2840,2.0000,1000.0000,1512.0000,2000.0000,-92.0000,-57.0000,78.0000,-207.0000,-298.0000,4058.0000,0.1378,-0.0667,-0.4268,0.8913,149.3900,-31.0400,-88.1800,-14.9900,-3.1600,1.1200,0.0000,0.0000,-0.0000,1044.0000,1056.0000,1500.0000,1003.0000
228559.0910,2.0000,1000.0000,1505.0000,2000.0000,-93.0000,-49.0000,81.0000,-243.0000,-292.0000,3953.0000,0.1240,-0.0670,-0.4390,0.8874,149.1000,-31.1100,-88.1700,-15.0100,-2.9500,1.0500,0.0000,0.0000,-0.0000,1043.0000,1048.0000,1500.0000,1003.0000
228575.8680,2.0000,1000.0000,1505.0000,2000.0000,-93.0000,-40.0000,87.0000,-285.0000,-329.0000,3921.0000,0.1100,-0.0685,-0.4509,0.8831,148.8000,-31.1700,-88.1600,-15.0400,-2.7200,0.9900,0.0000,0.0000,-0.0000,1043.0000,1048.0000,1500.0000,1003.0000
228592.7150,2.0000,1000.0000,1505.0000,2000.0000,-89.0000,-30.0000,93.0000,-305.0000,-247.0000,3750.0000,0.0959,-0.0718,-0.4622,0.8786,148.4900,-31.2200,-88.1500,-15.0800,-2.4800,0.9500,0.0000,0.0000,-0.0000,1043.0000,1048.0000,1500.0000,1003.0000
228609.4350,2.0000,1000.0000,1505.0000,2000.0000,-89.0000,-22.0000,99.0000,-347.0000,-185.0000,3464.0000,0.0818,-0.0766,-0.4729,0.8739,148.1900,-31.2800,-88.1400,-15.1100,-2.2400,0.9300,0.0000,0.0000,-0.0000,1043.0000,1048.0000,1500.0000,1003.0000
228626.6930,2.0000,1000.0000,1505.0000,2000.0000,-92.0000,-16.0000,104.0000,-381.0000,-200.0000,3060.0000,0.0669,-0.0830,-0.4837,0.8687,147.8900,-31.3200,-88.1300,-15.1100,-2.0300,0.9400,0.0000,0.0000,-0.0000,1043.0000,1048.0000,1500.0000,1003.0000
228643.5840,2.0000,1000.0000,1505.0000,2000.0000,-99.0000,-10.0000,107.0000,-399.0000,-173.0000,2800.0000,0.0520,-0.0902,-0.4946,0.8628,147.8900,-31.3200,-88.1300,-15.1100,-2.0300,0.9400,0.0000,0.0000,-0.0000,1043.0000,1048.0000,1500.0000,1003.0000
228660.0950,2.0000,1000.0000,1505.0000,2000.0000,-101.0000,-7.0000,109.0000,-411.0000,-70.0000,2550.0000,0.0375,-0.0980,-0.5055,0.8564,147.6000,-31.3600,-88.1200,-15.1000,-1.8500,0.9700,0.0000,0.0000,-0.0000,1043.0000,1048.0000,1500.0000,1003.0000
228676.8480,2.0000,1000.0000,1541.0000,2000.0000,-99.0000,-3.0000,108.0000,-403.0000,26.0000,2448.0000,0.0228,-0.1064,-0.5164,0.8494,147.3000,-31.4000,-88.1100,-15.0900,-1.6800,1.0300,0.0000,0.0000,-0.0000,1017.0000,1059.0000,1500.0000,1048.0000
228693.8980,2.0000,1000.0000,1542.0000,2000.0000,-95.0000,-1.0000,108.0000,-394.0000,27.0000,2349.0000,0.0082,-0.1153,-0.5269,0.8420,147.0000,-31.4400,-88.0900,-15.0900,-1.4800,1.1100,0.0000,0.0000,-0.0000,1017.0000,1059.0000,1500.0000,1048.0000
228710.6280,2.0000,1000.0000,1542.0000,2000.0000,-96.0000,3.0000,107.0000,-384.0000,13.0000,2316.0000,-0.0058,-0.1243,-0.5367,0.8345,146.6900,-31.4700,-88.0800,-15.0800,-1.2900,1.2000,0.0000,0.0000,-0.0000,1017.0000,1059.0000,1500.0000,1048.0000
228727.6570,2.0000,1000.0000,1542.0000,2000.0000,-99.0000,7.0000,106.0000,-383.0000,63.0000,2272.0000,-0.0198,-0.1336,-0.5466,0.8265,146.6900,-31.4700,-88.0800,-15.0800,-1.2900,1.2000,0.0000,0.0000,-0.0000,1017.0000,1059.0000,1500.0000,1048.0000
228744.4670,2.0000,1000.0000,1542.0000,2000.0000,-104.0000,9.0000,101.0000,-375.0000,164.0000,2065.0000,-0.0331,-0.1429,-0.5565,0.8178,146.4000,-31.5000,-88.0600,-15.0700,-1.1200,1.3000,0.0000,0.0000,-0.0000,1017.0000,1059.0000,1500.0000,1048.0000
228761.3320,2.0000,1000.0000,1587.0000,2000.0000,-111.0000,7.0000,97.0000,-381.0000,222.0000,1888.0000,-0.0461,-0.1518,-0.5672,0.8082,146.1100,-31.5300,-88.0500,-15.0500,-0.9600,1.4100,0.0000,0.0000,-0.0000,1027.0000,1123.0000,1500.0000,1078.0000
228778.1860,2.0000,1000.0000,1596.0000,2000.0000,-120.0000,3.0000,90.0000,-400.0000,320.0000,1763.0000,-0.0587,-0.1598,-0.5786,0.7976,145.8200,-31.5500,-88.0300,-15.0300,-0.7900,1.5500,0.0000,0.0000,-0.0000,1027.0000,1123.0000,1500.0000,1078.0000
228795.1830,2.0000,1000.0000,1596.0000,2000.0000,-131.0000,1.0000,83.0000,-399.0000,357.0000,1819.0000,-0.0712,-0.1668,-0.5912,0.7859,145.5100,-31.5600,-88.0000,-15.0000,-0.6100,1.7100,0.0000,0.0000,-0.0000,1027.0000,1123.0000,1500.0000,1078.0000
228812.2100,2.0000,1000.0000,1596.0000,2000.0000,-140.0000,0.0000,77.0000,-406.0000,331.0000,1892.0000,-0.0831,-0.1729,-0.6047,0.7730,145.2100,-31.5800,-87.9700,-14.9700,-0.4300,1.8700,0.0000,0.0000,-0.0000,1027.0000,1123.0000,1500.0000,1078.0000
228829.5090,2.0000,1000.0000,1596.0000,2000.0000,-148.0000,-2.0000,70.0000,-418.0000,303.0000,1849.0000,-0.0951,-0.1779,-0.6193,0.7588,144.9200,-31.5900,-87.9400,-14.9300,-0.2500,2.0400,0.0000,0.0000,-0.0000,1027.0000,1123.0000,1500.0000,1078.0000
228846.1550,2.0000,1000.0000,1596.0000,2000.0000,-156.0000,-4.0000,63.0000,-420.0000,274.0000,1805.0000,-0.1063,-0.1816,-0.6340,0.7441,144.9200,-31.5900,-87.9400,-14.9300,-0.2500,2.0400,0.0000,0.0000,-0.0000,1027.0000,1123.0000,1500.0000,1078.0000
228863.1820,2.0000,1000.0000,1597.0000,2000.0000,-162.0000,-6.0000,57.0000,-420.0000,296.0000,1834.0000,-0.1173,-0.1845,-0.6497,0.7281,144.6300,-31.6000,-87.9100,-14.8900,-0.0900,2.2100,0.0000,0.0000,-0.0000,1027.0000,1124.0000,1500.0000,1079.0000
228879.9520,2.0000,1000.0000,1597.0000,2000.0000,-169.0000,-6.0000,50.0000,-399.0000,382.0000,1814.0000,-0.1274,-0.1864,-0.6656,0.7114,144.3400,-31.6000,-87.8800,-14.8500,0.0700,2.3900,0.0000,0.0000,-0.0000,1027.0000,1124.0000,1500.0000,1079.0000
228896.9490,2.0000,1000.0000,1597.0000,2000.0000,-171.0000,-6.0000,43.0000,-406.0000,311.0000,1782.0000,-0.1370,-0.1876,-0.6818,0.6937,144.0400,-31.6000,-87.8400,-14.8000,0.2500,2.5800,0.0000,0.0000,-0.0000,1027.0000,1124.0000,1500.0000,1079.0000
228913.7020,2.0000,1000.0000,1597.0000,2000.0000,-173.0000,-7.0000,38.0000,-436.0000,239.0000,1777.0000,-0.1458,-0.1880,-0.6976,0.6758,143.7500,-31.5900,-87.7900,-14.7500,0.4200,2.7700,0.0000,0.0000,-0.0000,1027.0000,1124.0000,1500.0000,1079.0000
228930.7410,2.0000,1000.0000,1597.0000,2000.0000,-174.0000,-8.0000,32.0000,-444.0000,236.0000,1689.0000,-0.1546,-0.1872,-0.7137,0.6571,143.4700,-31.5800,-87.7400,-14.6900,0.5800,2.9700,0.0000,0.0000,-0.0000,1027.0000,1124.0000,1500.0000,1079.0000
228947.4530,2.0000,1000.0000,1597.0000,2000.0000,-175.0000,-7.0000,26.0000,-465.0000,205.0000,1619.0000,-0.1627,-0.1858,-0.7292,0.6382,143.4700,-31.5800,-87.7400,-14.6900,0.5800,2.9700,0.0000,0.0000,-0.0000,1027.0000,1124.0000,1500.0000,1079.0000
228964.1370,2.0000,1000.0000,1597.0000,2000.0000,-175.0000,-7.0000,22.0000,-456.0000,258.0000,1526.0000,-0.1701,-0.1837,-0.7443,0.6191,143.1900,-31.5700,-87.6900,-14.6300,0.7200,3.1700,0.0000,0.0000,-0.0000,1027.0000,1124.0000,1500.0000,1079.0000
228981.2480,2.0000,1000.0000,1597.0000,2000.0000,-175.0000,-9.0000,19.0000,-481.0000,159.0000,1519.0000,-0.1773,-0.1811,-0.7594,0.5992,142.8900,-31.5600,-87.6400,-14.5600,0.8700,3.3800,0.0000,0.0000,-0.0000,1027.0000,1124.0000,1500.0000,1079.0000
228998.2450,2.0000,1000.0000,1597.0000,2000.0000,-176.0000,-9.0000,17.0000,-496.0000,156.0000,1429.0000,-0.1841,-0.1782,-0.7739,0.5792,142.6000,-31.5400,-87.5700,-14.5000,1.0200,3.5900,0.0000,0.0000,-0.0000,1027.0000,1124.0000,1500.0000,1079.0000
229015.2840,2.0000,1000.0000,1597.0000,2000.0000,-177.0000,-12.0000,14.0000,-498.0000,160.0000,1229.0000,-0.1907,-0.1747,-0.7880,0.5586,142.3100,-31.5200,-87.5100,-14.4300,1.1500,3.8000,0.0000,0.0000,-0.0000,1027.0000,1124.0000,1500.0000,1079.0000
229032.3230,2.0000,1000.0000,1597.0000,2000.0000,-177.0000,-14.0000,15.0000,-521.0000,62.0000,1158.0000,-0.1979,-0.1703,-0.8017,0.5376,142.0300,-31.5000,-87.4400,-14.3500,1.2500,4.0100,0.0000,0.0000,-0.0000,1027.0000,1124.0000,1500.0000,1079.0000
229049.3350,2.0000,1070.0000,1647.0000,2000.0000,-176.0000,-17.0000,14.0000,-522.0000,93.0000,1030.0000,-0.2052,-0.1656,-0.8147,0.5164,142.0300,-31.5000,-87.4400,-14.3500,1.2500,4.0100,0.0000,0.0000,-0.0000,1062.0000,1214.0000,1500.0000,1123.0000
229066.1930,2.0000,1073.0000,1652.0000,2000.0000,-175.0000,-20.0000,15.0000,-527.0000,26.0000,938.0000,-0.2127,-0.1608,-0.8268,0.4952,141.7600,-31.4700,-87.3700,-14.2800,1.3400,4.2100,0.0000,0.0000,-0.0000,1062.0000,1214.0000,1500.0000,1123.0000
229083.2270,2.0000,1073.0000,1652.0000,2000.0000,-175.0000,-24.0000,17.0000,-538.0000,46.0000,883.0000,-0.2205,-0.1558,-0.8383,0.4737,141.4800,-31.4400,-87.2900,-14.2000,1.4300,4.4100,0.0000,0.0000,-0.0000,1062.0000,1214.0000,1500.0000,1123.0000
229099.9770,2.0000,1073.0000,1652.0000,2000.0000,-182.0000,-26.0000,18.0000,-579.0000,-19.0000,937.0000,-0.2284,-0.1508,-0.8491,0.4518,141.2000,-31.4100,-87.2100,-14.1100,1.5100,4.6100,0.0000,0.0000,-0.0000,1062.0000,1214.0000,1500.0000,1123.0000
229117.1260,2.0000,1073.0000,1652.0000,2000.0000,-187.0000,-27.0000,20.0000,-574.0000,35.0000,949.0000,-0.2368,-0.1456,-0.8598,0.4283,140.9200,-31.3800,-87.1300,-14.0200,1.5900,4.8100,0.0000,0.0000,-0.0000,1062.0000,1214.0000,1500.0000,1123.0000
229134.0830,2.0000,1073.0000,1652.0000,2000.0000,-193.0000,-28.0000,23.0000,-580.0000,-10.0000,937.0000,-0.2457,-0.1397,-0.8701,0.4037,140.6500,-31.3500,-87.0400,-13.9200,1.6700,5.0200,0.0000,0.0000,-0.0000,1062.0000,1214.0000,1500.0000,1123.0000
229151.0280,2.0000,1073.0000,1652.0000,2000.0000,-196.0000,-30.0000,25.0000,-548.0000,36.0000,877.0000,-0.2547,-0.1340,-0.8798,0.3783,140.6500,-31.3500,-87.0400,-13.9200,1.6700,5.0200,0.0000,0.0000,-0.0000,1062.0000,1214.0000,1500.0000,1123.0000
229167.9700,2.0000,1825.0000,1371.0000,1000.0000,-199.0000,-32.0000,28.0000,-557.0000,-31.0000,816.0000,-0.2639,-0.1284,-0.8888,0.3521,140.3900,-31.3100,-86.9500,-13.8200,1.7400,5.2200,0.0000,0.0000,-0.0000,1993.0000,1861.0000,1500.0000,1844.0000
229184.8250,2.0000,1834.0000,1368.0000,1000.0000,-199.0000,-34.0000,30.0000,-553.0000,39.0000,714.0000,-0.2732,-0.1230,-0.8969,0.3253,140.1200,-31.2800,-86.8500,-13.7300,1.7900,5.4200,0.0000,0.0000,-0.0000,1993.0000,1861.0000,1500.0000,1844.0000
229201.6740,2.0000,1834.0000,1368.0000,1000.0000,-210.0000,-35.0000,33.0000,-552.0000,19.0000,678.0000,-0.2827,-0.1178,-0.9042,0.2977,139.8400,-31.2400,-86.7500,-13.6300,1.8400,5.6200,0.0000,0.0000,-0.0000,1993.0000,1861.0000,1500.0000,1844.0000
229218.6520,2.0000,1834.0000,1368.0000,1000.0000,-211.0000,-40.0000,31.0000,-369.0000,52.0000,469.0000,-0.2924,-0.1121,-0.9109,0.2687,139.5700,-31.2000,-86.6500,-13.5400,1.8700,5.8200,0.0000,0.0000,-0.0000,1993.0000,1861.0000,1500.0000,1844.0000
229235.5400,2.0000,1834.0000,1368.0000,1000.0000,-185.0000,-48.0000,31.0000,127.0000,-4.0000,504.0000,-0.3028,-0.1058,-0.9160,0.2410,139.3200,-31.1600,-86.5400,-13.4800,1.8800,6.0200,0.0000,0.0000,-0.0000,1993.0000,1861.0000,1500.0000,1844.0000
229252.5920,2.0000,1834.0000,1368.0000,1000.0000,-154.0000,-50.0000,25.0000,768.0000,-197.0000,758.0000,-0.3131,-0.1001,-0.9192,0.2171,139.3200,-31.1600,-86.5400,-13.4800,1.8800,6.0200,0.0000,0.0000,-0.0000,1993.0000,1861.0000,1500.0000,1844.0000
229269.4810,2.0000,1561.0000,1288.0000,1000.0000,-105.0000,-47.0000,18.0000,1227.0000,-349.0000,1196.0000,-0.3223,-0.0955,-0.9205,0.1991,139.0600,-31.1200,-86.4300,-13.4600,1.9100,6.2800,0.0000,0.0000,-0.0000,1973.0000,1761.0000,1500.0000,1585.0000
229286.2330,2.0000,1561.0000,1288.0000,1000.0000,-44.0000,-36.0000,12.0000,1178.0000,-313.0000,1631.0000,-0.3294,-0.0928,-0.9204,0.1890,138.7900,-31.0800,-86.3100,-13.4700,1.9800,6.6200,0.0000,0.0000,-0.0000,1973.0000,1761.0000,1500.0000,1585.0000
229302.9900,2.0000,1561.0000,1288.0000,1000.0000,43.0000,-10.0000,6.0000,899.0000,-257.0000,1936.0000,-0.3327,-0.0934,-0.9192,0.1889,138.5200,-31.0400,-86.1800,-13.4400,2.0800,7.0000,0.0000,0.0000,-0.0000,1973.0000,1761.0000,1500.0000,1585.0000
229320.0420,2.0000,1561.0000,1288.0000,1000.0000,123.0000,18.0000,3.0000,666.0000,-142.0000,1714.0000,-0.3310,-0.0983,-0.9168,0.2004,138.2600,-30.9900,-86.0400,-13.3700,2.1800,7.3800,0.0000,0.0000,-0.0000,1973.0000,1761.0000,1500.0000,1585.0000
229336.7810,2.0000,1561.0000,1288.0000,1000.0000,187.0000,44.0000,1.0000,640.0000,-209.0000,1209.0000,-0.3246,-0.1065,-0.9135,0.2212,138.0100,-30.9500,-85.8900,-13.2900,2.2500,7.7200,0.0000,0.0000,-0.0000,1973.0000,1761.0000,1500.0000,1585.0000
229353.3270,2.0000,1000.0000,1439.0000,1537.0000,238.0000,64.0000,-1.0000,633.0000,-257.0000,359.0000,-0.3139,-0.1176,-0.9088,0.2485,138.0100,-30.9500,-85.8900,-13.2900,2.2500,7.7200,0.0000,0.0000,-0.0000,1027.0000,1124.0000,1500.0000,1079.0000
229370.1020,2.0000,1000.0000,1597.0000,2000.0000,280.0000,91.0000,0.0000,665.0000,-202.0000,-655.0000,-0.2987,-0.1316,-0.9024,0.2814,137.7600,-30.9000,-85.7400,-13.2600,2.3000,7.9900,0.0000,0.0000,-0.0000,1027.0000,1124.0000,1500.0000,1079.0000
229387.0990,2.0000,1000.0000,1597.0000,2000.0000,303.0000,109.0000,3.0000,415.0000,-74.0000,-1710.0000,-0.2796,-0.1480,-0.8937,0.3182,137.5100,-30.8500,-85.5900,-13.2800,2.2700,8.1800,0.0000,0.0000,-0.0000,1027.0000,1124.0000,1500.0000,1079.0000
229404.2110,2.0000,1000.0000,1597.0000,2000.0000,287.0000,113.0000,6.0000,267.0000,19.0000,-2722.0000,-0.2584,-0.1651,-0.8833,0.3546,137.2400,-30.8000,-85.4300,-13.3100,2.1500,8.2500,0.0000,0.0000,-0.0000,1027.0000,1124.0000,1500.0000,1079.0000
229420.9480,2.0000,1000.0000,1597.0000,2000.0000,233.0000,105.0000,12.0000,117.0000,73.0000,-3734.0000,-0.2385,-0.1806,-0.8731,0.3849,136.9800,-30.7600,-85.2700,-13.3500,1.9300,8.2400,0.0000,0.0000,-0.0000,1027.0000,1124.0000,1500.0000,1079.0000
229437.7310,2.0000,1000.0000,1597.0000,2000.0000,167.0000,82.0000,20.0000,-17.0000,57.0000,-4593.0000,-0.2220,-0.1945,-0.8644,0.4071,136.7300,-30.7200,-85.1200,-13.3700,1.6300,8.1400,0.0000,0.0000,-0.0000,1027.0000,1124.0000,1500.0000,1079.0000
229454.5580,2.0000,1000.0000,1597.0000,2000.0000,88.0000,39.0000,28.0000,-136.0000,79.0000,-5289.0000,-0.2121,-0.2046,-0.8584,0.4199,136.7300,-30.7200,-85.1200,-13.3700,1.6300,8.1400,0.0000,0.0000,-0.0000,1027.0000,1124.0000,1500.0000,1079.0000
229471.2470,2.0000,1000.0000,1597.0000,2000.0000,3.0000,-9.0000,37.0000,-406.0000,5.0000,-5210.0000,-0.2114,-0.2102,-0.8553,0.4237,136.4900,-30.6900,-84.9800,-13.3700,1.2400,7.9700,0.0000,0.0000,-0.0000,1027.0000,1124.0000,1500.0000,1079.0000
229488.0210,2.0000,1000.0000,1597.0000,2000.0000,-37.0000,-60.0000,49.0000,-546.0000,-55.0000,-4459.0000,-0.2197,-0.2124,-0.8540,0.4212,136.2300,-30.6700,-84.8500,-13.3400,0.8700,7.7800,0.0000,0.0000,-0.0000,1027.0000,1124.0000,1500.0000,1079.0000
229504.8460,2.0000,1000.0000,1597.0000,2000.0000,-96.0000,-96.0000,57.0000,-478.0000,-20.0000,-3821.0000,-0.2356,-0.2113,-0.8540,0.4129,135.9700,-30.6500,-84.7300,-13.2900,0.5700,7.6300,0.0000,0.0000,-0.0000,1027.0000,1124.0000,1500.0000,1079.0000
229522.0220,2.0000,1000.0000,1597.0000,2000.0000,-124.0000,-131.0000,68.0000,-536.0000,-105.0000,-2277.0000,-0.2580,-0.2079,-0.8547,0.3997,135.7200,-30.6300,-84.6200,-13.2100,0.3800,7.5400,0.0000,0.0000,-0.0000,1027.0000,1124.0000,1500.0000,1079.0000
229538.7760,2.0000,1000.0000,1597.0000,2000.0000,-151.0000,-149.0000,74.0000,-548.0000,-120.0000,-828.0000,-0.2839,-0.2030,-0.8551,0.3834,135.4900,-30.6200,-84.5200,-13.0900,0.3500,7.5800,0.0000,0.0000,-0.0000,1027.0000,1124.0000,1500.0000,1079.0000
229555.7260,2.0000,1000.0000,1597.0000,2000.0000,-171.0000,-158.0000,78.0000,-508.0000,-131.0000,325.0000,-0.3127,-0.1970,-0.8548,0.3643,135.4900,-30.6200,-84.5200,-13.0900,0.3500,7.5800,0.0000,0.0000,-0.0000,1027.0000,1124.0000,1500.0000,1079.0000
229572.4670,2.0000,1303.0000,1000.0000,1664.0000,-192.0000,-156.0000,81.0000,-493.0000,-103.0000,1382.0000,-0.3415,-0.1905,-0.8541,0.3430,135.2700,-30.6100,-84.4100,-12.9300,0.4400,7.7400,0.0000,0.0000,-0.0000,1680.0000,1158.0000,1500.0000,1341.0000
229589.5120,2.0000,1303.0000,1000.0000,1664.0000,-189.0000,-157.0000,82.0000,-519.0000,-88.0000,2348.0000,-0.3706,-0.1833,-0.8527,0.3193,135.0200,-30.5800,-84.3000,-12.8200,0.6500,7.9900,0.0000,0.0000,-0.0000,1680.0000,1158.0000,1500.0000,1341.0000
229606.4400,2.0000,1303.0000,1000.0000,1664.0000,-156.0000,-161.0000,77.0000,-385.0000,-71.0000,2979.0000,-0.3989,-0.1765,-0.8492,0.2976,134.7800,-30.5500,-84.1700,-12.6900,0.9200,8.3100,0.0000,0.0000,-0.0000,1680.0000,1158.0000,1500.0000,1341.0000
229623.5370,2.0000,1303.0000,1000.0000,1664.0000,-116.0000,-171.0000,65.0000,-247.0000,98.0000,3044.0000,-0.4266,-0.1701,-0.8430,0.2800,134.5500,-30.5200,-84.0400,-12.5300,1.2000,8.6700,0.0000,0.0000,-0.0000,1680.0000,1158.0000,1500.0000,1341.0000
229640.4290,2.0000,1303.0000,1000.0000,1664.0000,-82.0000,-173.0000,48.0000,-142.0000,21.0000,3664.0000,-0.4526,-0.1633,-0.8347,0.2679,134.3300,-30.4800,-83.9000,-12.3400,1.4600,9.0400,0.0000,0.0000,-0.0000,1680.0000,1158.0000,1500.0000,1341.0000
229657.3440,2.0000,1303.0000,1000.0000,1664.0000,-29.0000,-182.0000,34.0000,16.0000,-44.0000,4173.0000,-0.4774,-0.1576,-0.8237,0.2623,134.3300,-30.4800,-83.9000,-12.3400,1.4600,9.0400,0.0000,0.0000,-0.0000,1680.0000,1158.0000,1500.0000,1341.0000
229674.3090,2.0000,1278.0000,1130.0000,1896.0000,-15.0000,-177.0000,20.0000,117.0000,-3.0000,4855.0000,-0.5006,-0.1522,-0.8110,0.2618,134.1300,-30.4300,-83.7400,-12.1100,1.7300,9.4300,0.0000,0.0000,-0.0000,1486.0000,1117.0000,1500.0000,1317.0000
229691.1860,2.0000,1278.0000,1130.0000,1896.0000,-9.0000,-171.0000,8.0000,172.0000,36.0000,5589.0000,-0.5219,-0.1463,-0.7981,0.2633,133.8900,-30.3800,-83.5700,-11.8900,2.0300,9.8300,0.0000,0.0000,-0.0000,1486.0000,1117.0000,1500.0000,1317.0000
229708.1070,2.0000,1278.0000,1130.0000,1896.0000,-12.0000,-164.0000,1.0000,210.0000,21.0000,6052.0000,-0.5418,-0.1399,-0.7850,0.2657,133.6600,-30.3200,-83.3900,-11.6300,2.3400,10.2400,0.0000,0.0000,-0.0000,1486.0000,1117.0000,1500.0000,1317.0000
229725.3160,2.0000,1278.0000,1130.0000,1896.0000,-23.0000,-150.0000,-5.0000,206.0000,-35.0000,6378.0000,-0.5604,-0.1323,-0.7726,0.2674,133.4400,-30.2600,-83.1900,-11.3200,2.6500,10.6200,0.0000,0.0000,-0.0000,1486.0000,1117.0000,1500.0000,1317.0000
229741.8760,2.0000,1278.0000,1130.0000,1896.0000,-27.0000,-136.0000,-11.0000,137.0000,-68.0000,6726.0000,-0.5763,-0.1241,-0.7619,0.2681,133.2300,-30.2000,-82.9800,-10.9600,2.9800,10.9800,0.0000,0.0000,-0.0000,1486.0000,1117.0000,1500.0000,1317.0000
229758.7840,2.0000,1962.0000,1493.0000,2000.0000,-26.0000,-120.0000,-14.0000,45.0000,-86.0000,6597.0000,-0.5904,-0.1158,-0.7521,0.2691,133.2300,-30.2000,-82.9800,-10.9600,2.9800,10.9800,0.0000,0.0000,-0.0000,1070.0000,1064.0000,1500.0000,1966.0000
229775.5890,2.0000,1963.0000,1494.0000,2000.0000,-30.0000,-101.0000,-16.0000,1.0000,-156.0000,6361.0000,-0.6022,-0.1081,-0.7435,0.2700,133.0100,-30.1200,-82.7700,-10.5200,3.2700,11.3000,0.0000,0.0000,-0.0000,1070.0000,1064.0000,1500.0000,1966.0000
229792.5570,2.0000,1963.0000,1494.0000,2000.0000,-43.0000,-77.0000,-17.0000,330.0000,-149.0000,6216.0000,-0.6114,-0.1001,-0.7372,0.2696,132.7900,-30.0400,-82.5400,-10.0800,3.5300,11.5700,0.0000,0.0000,-0.0000,1070.0000,1064.0000,1500.0000,1966.0000
229809.2520,2.0000,1963.0000,1494.0000,2000.0000,-64.0000,-57.0000,-18.0000,926.0000,-323.0000,6308.0000,-0.6183,-0.0912,-0.7334,0.2672,132.5900,-29.9700,-82.3100,-9.6800,3.7600,11.8400,0.0000,0.0000,-0.0000,1070.0000,1064.0000,1500.0000,1966.0000
229826.1140,2.0000,1963.0000,1494.0000,2000.0000,-76.0000,-41.0000,-11.0000,1378.0000,-346.0000,6163.0000,-0.6235,-0.0822,-0.7319,0.2623,132.4000,-29.8800,-82.0800,-9.3000,3.9900,12.1900,0.0000,0.0000,-0.0000,1070.0000,1064.0000,1500.0000,1966.0000
229842.7390,2.0000,1963.0000,1494.0000,2000.0000,-84.0000,-29.0000,-3.0000,1398.0000,-290.0000,5399.0000,-0.6270,-0.0740,-0.7321,0.2557,132.2300,-29.8000,-81.8300,-8.9700,4.1900,12.5700,0.0000,0.0000,-0.0000,1070.0000,1064.0000,1500.0000,1966.0000
229859.3430,2.0000,1996.0000,1166.0000,2000.0000,-85.0000,-16.0000,7.0000,1496.0000,-511.0000,4941.0000,-0.6302,-0.0663,-0.7331,0.2472,132.2300,-29.8000,-81.8300,-8.9700,4.1900,12.5700,0.0000,0.0000,-0.0000,1421.0000,1080.0000,1500.0000,1998.0000
229876.0770,2.0000,1997.0000,1158.0000,1998.0000,-91.0000,-19.0000,14.0000,1411.0000,-806.0000,4376.0000,-0.6330,-0.0594,-0.7345,0.2374,132.0500,-29.7100,-81.5700,-8.5900,4.3000,12.9700,0.0000,0.0000,-0.0000,1421.0000,1080.0000,1500.0000,1998.0000
229892.6720,2.0000,1997.0000,1158.0000,1998.0000,-98.0000,-33.0000,21.0000,1601.0000,-744.0000,3645.0000,-0.6367,-0.0524,-0.7352,0.2265,131.8700,-29.6200,-81.3100,-8.2700,4.3600,13.3500,0.0000,0.0000,-0.0000,1421.0000,1080.0000,1500.0000,1998.0000
229909.5970,2.0000,1997.0000,1158.0000,1998.0000,-87.0000,-63.0000,24.0000,1193.0000,-458.0000,2510.0000,-0.6431,-0.0454,-0.7334,0.2154,131.7000,-29.5300,-81.0300,-8.0300,4.3600,13.7200,0.0000,0.0000,-0.0000,1421.0000,1080.0000,1500.0000,1998.0000
229926.8530,2.0000,1997.0000,1158.0000,1998.0000,-76.0000,-97.0000,23.0000,1099.0000,-183.0000,2301.0000,-0.6531,-0.0382,-0.7279,0.2051,131.5500,-29.4500,-80.7400,-7.8800,4.2600,14.0600,0.0000,0.0000,-0.0000,1421.0000,1080.0000,1500.0000,1998.0000
229943.8510,2.0000,1997.0000,1158.0000,1998.0000,-70.0000,-125.0000,21.0000,952.0000,-81.0000,2811.0000,-0.6659,-0.0307,-0.7192,0.1961,131.4000,-29.3700,-80.4500,-7.7200,4.1200,14.3900,0.0000,0.0000,-0.0000,1421.0000,1080.0000,1500.0000,1998.0000
229960.7820,2.0000,1997.0000,1052.0000,1890.0000,-67.0000,-157.0000,18.0000,887.0000,-278.0000,3903.0000,-0.6816,-0.0220,-0.7070,0.1874,131.4000,-29.3700,-80.4500,-7.7200,4.1200,14.3900,0.0000,0.0000,-0.0000,1532.0000,1081.0000,1500.0000,1998.0000
229977.6960,2.0000,1997.0000,1051.0000,1889.0000,-63.0000,-174.0000,16.0000,1102.0000,-334.0000,5253.0000,-0.6995,-0.0127,-0.6916,0.1795,131.2500,-29.2900,-80.1500,-7.3000,4.0600,14.7100,0.0000,0.0000,-0.0000,1532.0000,1081.0000,1500.0000,1998.0000
229994.5740,2.0000,1997.0000,1051.0000,1889.0000,-53.0000,-189.0000,12.0000,1349.0000,-512.0000,6760.0000,-0.7185,-0.0033,-0.6738,0.1724,131.1100,-29.2200,-79.8400,-6.7300,4.0400,15.0200,0.0000,0.0000,-0.0000,1532.0000,1081.0000,1500.0000,1998.0000
230011.2460,2.0000,1997.0000,1051.0000,1889.0000,-36.0000,-204.0000,6.0000,1630.0000,-480.0000,8010.0000,-0.7377,0.0053,-0.6541,0.1672,130.9900,-29.1500,-79.5200,-6.0500,4.0600,15.3000,0.0000,0.0000,-0.0000,1532.0000,1081.0000,1500.0000,1998.0000
230028.3470,2.0000,1997.0000,1051.0000,1889.0000,-28.0000,-205.0000,1.0000,1679.0000,-502.0000,8958.0000,-0.7574,0.0137,-0.6320,0.1635,130.8900,-29.0800,-79.1900,-5.2800,4.0900,15.5500,0.0000,0.0000,-0.0000,1532.0000,1081.0000,1500.0000,1998.0000
230045.1060,2.0000,1997.0000,1051.0000,1889.0000,-21.0000,-201.0000,-3.0000,1645.0000,-492.0000,9719.0000,-0.7758,0.0215,-0.6098,0.1607,130.8000,-29.0100,-78.8500,-4.4500,4.1100,15.7200,0.0000,0.0000,-0.0000,1532.0000,1081.0000,1500.0000,1998.0000
230061.8240,2.0000,1997.0000,1088.0000,1926.0000,-24.0000,-189.0000,-6.0000,1614.0000,-377.0000,10292.0000,-0.7927,0.0290,-0.5879,0.1584,130.8000,-29.0100,-78.8500,-4.4500,4.1100,15.7200,0.0000,0.0000,-0.0000,1491.0000,1081.0000,1500.0000,1998.0000
230078.7120,2.0000,1997.0000,1089.0000,1927.0000,-24.0000,-162.0000,-10.0000,1584.0000,-650.0000,11346.0000,-0.8075,0.0365,-0.5675,0.1564,130.7200,-28.9300,-78.5000,-3.5600,4.2100,15.8000,0.0000,0.0000,-0.0000,1491.0000,1081.0000,1500.0000,1998.0000
230095.6340,2.0000,1997.0000,1089.0000,1927.0000,-29.0000,-131.0000,-10.0000,1310.0000,-528.0000,11052.0000,-0.8192,0.0439,-0.5506,0.1545,130.6500,-28.8500,-78.1500,-2.6700,4.3000,15.7600,0.0000,0.0000,-0.0000,1491.0000,1081.0000,1500.0000,1998.0000
230112.5980,2.0000,1997.0000,1089.0000,1927.0000,-25.0000,-102.0000,-10.0000,1430.0000,-547.0000,10451.0000,-0.8281,0.0507,-0.5369,0.1526,130.6100,-28.7700,-77.8100,-1.8700,4.3500,15.6400,0.0000,0.0000,-0.0000,1491.0000,1081.0000,1500.0000,1998.0000
230129.5650,2.0000,1997.0000,1089.0000,1927.0000,-18.0000,-67.0000,-10.0000,1422.0000,-696.0000,10024.0000,-0.8344,0.0562,-0.5270,0.1514,130.5800,-28.7000,-77.4800,-1.1900,4.3700,15.5000,0.0000,0.0000,-0.0000,1491.0000,1081.0000,1500.0000,1998.0000
230146.4470,2.0000,1997.0000,1089.0000,1927.0000,-8.0000,-39.0000,-4.0000,1197.0000,-594.0000,8884.0000,-0.8382,0.0595,-0.5208,0.1505,130.5700,-28.6200,-77.1500,-0.6300,4.3800,15.3600,0.0000,0.0000,-0.0000,1491.0000,1081.0000,1500.0000,1998.0000
230163.3860,2.0000,1996.0000,1227.0000,2000.0000,-1.0000,-26.0000,-2.0000,901.0000,-208.0000,7611.0000,-0.8406,0.0609,-0.5169,0.1502,130.5700,-28.6200,-77.1500,-0.6300,4.3800,15.3600,0.0000,0.0000,-0.0000,1347.0000,1076.0000,1500.0000,1997.0000
230180.0800,2.0000,1996.0000,1228.0000,2000.0000,-1.0000,-18.0000,2.0000,697.0000,-404.0000,6883.0000,-0.8423,0.0618,-0.5141,0.1496,130.5500,-28.5300,-76.8200,0.0000,4.4700,15.2600,0.0000,0.0000,-0.0000,1347.0000,1076.0000,1500.0000,1997.0000
230196.8590,2.0000,1996.0000,1228.0000,2000.0000,-13.0000,-10.0000,8.0000,587.0000,-592.0000,5982.0000,-0.8436,0.0626,-0.5123,0.1482,130.5500,-28.4400,-76.4900,0.4700,4.5300,15.1900,0.0000,0.0000,-0.0000,1347.0000,1076.0000,1500.0000,1997.0000
230213.6540,2.0000,1996.0000,1228.0000,2000.0000,-35.0000,-23.0000,14.0000,497.0000,-574.0000,4874.0000,-0.8450,0.0654,-0.5107,0.1446,130.5600,-28.3500,-76.1600,0.8100,4.5900,15.1500,0.0000,0.0000,-0.0000,1347.0000,1076.0000,1500.0000,1997.0000
230230.5950,2.0000,1996.0000,1228.0000,2000.0000,-53.0000,-49.0000,20.0000,703.0000,-542.0000,4292.0000,-0.8478,0.0705,-0.5071,0.1385,130.5700,-28.2700,-75.8500,1.0100,4.6300,15.1500,0.0000,0.0000,-0.0000,1347.0000,1076.0000,1500.0000,1997.0000
230247.5040,2.0000,1996.0000,1228.0000,2000.0000,-64.0000,-84.0000,23.0000,454.0000,-311.0000,3815.0000,-0.8531,0.0780,-0.4990,0.1306,130.5900,-28.1900,-75.5200,1.1500,4.6400,15.2200,0.0000,0.0000,-0.0000,1347.0000,1076.0000,1500.0000,1997.0000
230264.0640,2.0000,1996.0000,1228.0000,2000.0000,-71.0000,-120.0000,24.0000,346.0000,-309.0000,4444.0000,-0.8601,0.0867,-0.4878,0.1215,130.5900,-28.1900,-75.5200,1.1500,4.6400,15.2200,0.0000,0.0000,-0.0000,1347.0000,1076.0000,1500.0000,1997.0000
230281.1490,2.0000,1997.0000,1059.0000,1897.0000,-84.0000,-147.0000,24.0000,449.0000,-300.0000,5651.0000,-0.8692,0.0971,-0.4720,0.1110,130.6100,-28.0800,-75.1800,1.5800,4.8000,15.2700,0.0000,0.0000,-0.0000,1525.0000,1081.0000,1500.0000,1998.0000
230298.2120,2.0000,1997.0000,1058.0000,1896.0000,-86.0000,-169.0000,22.0000,640.0000,-220.0000,6984.0000,-0.8791,0.1090,-0.4531,0.0996,130.6400,-27.9700,-74.8500,2.0500,4.9000,15.2600,0.0000,0.0000,-0.0000,1525.0000,1081.0000,1500.0000,1998.0000
230315.1410,2.0000,1997.0000,1058.0000,1896.0000,-75.0000,-189.0000,17.0000,790.0000,-351.0000,8320.0000,-0.8898,0.1207,-0.4311,0.0888,130.6800,-27.8700,-74.5200,2.6000,4.9600,15.1500,0.0000,0.0000,-0.0000,1525.0000,1081.0000,1500.0000,1998.0000
230332.2770,2.0000,1997.0000,1058.0000,1896.0000,-56.0000,-192.0000,11.0000,1101.0000,-657.0000,10024.0000,-0.9009,0.1311,-0.4062,0.0790,130.7300,-27.7700,-74.1900,3.2200,4.9800,14.9200,0.0000,0.0000,-0.0000,1525.0000,1081.0000,1500.0000,1998.0000
230348.8030,2.0000,1997.0000,1058.0000,1896.0000,-43.0000,-193.0000,5.0000,1290.0000,-594.0000,10972.0000,-0.9110,0.1390,-0.3817,0.0715,130.8000,-27.6800,-73.8700,3.9100,4.9600,14.5700,0.0000,0.0000,-0.0000,1525.0000,1081.0000,1500.0000,1998.0000
230365.7150,2.0000,1997.0000,1069.0000,1907.0000,-34.0000,-187.0000,3.0000,1311.0000,-689.0000,12060.0000,-0.9206,0.1459,-0.3563,0.0650,130.8000,-27.6800,-73.8700,3.9100,4.9600,14.5700,0.0000,0.0000,-0.0000,1514.0000,1081.0000,1500.0000,1998.0000
230382.7460,2.0000,1997.0000,1069.0000,1907.0000,-33.0000,-174.0000,-3.0000,1259.0000,-719.0000,12747.0000,-0.9292,0.1522,-0.3316,0.0594,130.8800,-27.5600,-73.5500,4.7200,4.9200,14.1100,0.0000,0.0000,-0.0000,1514.0000,1081.0000,1500.0000,1998.0000
230399.7710,2.0000,1997.0000,1069.0000,1907.0000,-34.0000,-149.0000,-8.0000,1310.0000,-622.0000,12987.0000,-0.9360,0.1583,-0.3097,0.0552,130.9800,-27.4500,-73.2300,5.4700,4.8400,13.5300,0.0000,0.0000,-0.0000,1514.0000,1081.0000,1500.0000,1998.0000
230416.5760,2.0000,1997.0000,1069.0000,1907.0000,-38.0000,-123.0000,-10.0000,1147.0000,-875.0000,13393.0000,-0.9410,0.1647,-0.2910,0.0518,131.0900,-27.3400,-72.9300,6.1400,4.7200,12.8600,0.0000,0.0000,-0.0000,1514.0000,1081.0000,1500.0000,1998.0000
230433.4760,2.0000,1997.0000,1069.0000,1907.0000,-35.0000,-98.0000,-12.0000,1129.0000,-822.0000,12406.0000,-0.9447,0.1711,-0.2755,0.0491,131.2000,-27.2500,-72.6500,6.7100,4.5800,12.1100,0.0000,0.0000,-0.0000,1514.0000,1081.0000,1500.0000,1998.0000
230449.8990,2.0000,1997.0000,1095.0000,1933.0000,-24.0000,-80.0000,-14.0000,953.0000,-874.0000,11427.0000,-0.9473,0.1762,-0.2634,0.0477,131.3200,-27.1500,-72.3800,7.1300,4.4600,11.4400,0.0000,0.0000,-0.0000,1457.0000,1081.0000,1500.0000,1998.0000
230466.6280,2.0000,1997.0000,1123.0000,1961.0000,-24.0000,-60.0000,-18.0000,796.0000,-678.0000,10429.0000,-0.9492,0.1804,-0.2534,0.0474,131.3200,-27.1500,-72.3800,7.1300,4.4600,11.4400,0.0000,0.0000,-0.0000,1457.0000,1081.0000,1500.0000,1998.0000
230483.4190,2.0000,1997.0000,1123.0000,1961.0000,-30.0000,-43.0000,-18.0000,689.0000,-521.0000,9156.0000,-0.9502,0.1851,-0.2460,0.0477,131.4700,-27.0400,-72.1100,7.7100,4.3600,10.8400,0.0000,0.0000,-0.0000,1457.0000,1081.0000,1500.0000,1998.0000
230500.2380,2.0000,1997.0000,1123.0000,1961.0000,-30.0000,-47.0000,-15.0000,631.0000,-706.0000,8283.0000,-0.9509,0.1900,-0.2395,0.0478,131.6300,-26.9400,-71.8500,8.1300,4.2700,10.3400,0.0000,0.0000,-0.0000,1457.0000,1081.0000,1500.0000,1998.0000
230517.1620,2.0000,1997.0000,1123.0000,1961.0000,-32.0000,-50.0000,-13.0000,625.0000,-825.0000,7940.0000,-0.9517,0.1952,-0.2323,0.0473,131.7800,-26.8400,-71.6100,8.4400,4.2300,9.9300,0.0000,0.0000,-0.0000,1457.0000,1081.0000,1500.0000,1998.0000
230534.1010,2.0000,1997.0000,1123.0000,1961.0000,-34.0000,-65.0000,-9.0000,594.0000,-788.0000,7501.0000,-0.9526,0.2009,-0.2238,0.0462,131.9400,-26.7400,-71.3700,8.6700,4.2100,9.5700,0.0000,0.0000,-0.0000,1457.0000,1081.0000,1500.0000,1998.0000
230550.7290,2.0000,1997.0000,1037.0000,1875.0000,-43.0000,-78.0000,-1.0000,543.0000,-737.0000,6807.0000,-0.9537,0.2069,-0.2141,0.0437,132.0900,-26.6500,-71.1400,8.8500,4.2100,9.2500,0.0000,0.0000,-0.0000,1555.0000,1081.0000,1500.0000,1998.0000
230567.3660,2.0000,1997.0000,1028.0000,1866.0000,-49.0000,-105.0000,8.0000,625.0000,-826.0000,6772.0000,-0.9551,0.2136,-0.2016,0.0391,132.0900,-26.6500,-71.1400,8.8500,4.2100,9.2500,0.0000,0.0000,-0.0000,1555.0000,1081.0000,1500.0000,1998.0000
230584.2420,2.0000,1997.0000,1028.0000,1866.0000,-50.0000,-139.0000,13.0000,634.0000,-872.0000,7323.0000,-0.9570,0.2210,-0.1852,0.0323,132.2900,-26.5300,-70.9000,9.3500,4.2400,9.0100,0.0000,0.0000,-0.0000,1555.0000,1081.0000,1500.0000,1998.0000
230601.1790,2.0000,1997.0000,1028.0000,1866.0000,-35.0000,-168.0000,14.0000,634.0000,-811.0000,8152.0000,-0.9596,0.2273,-0.1639,0.0242,132.4900,-26.4300,-70.6600,9.7800,4.2500,8.7100,0.0000,0.0000,-0.0000,1555.0000,1081.0000,1500.0000,1998.0000
230618.5600,2.0000,1997.0000,1028.0000,1866.0000,-18.0000,-189.0000,12.0000,801.0000,-818.0000,9556.0000,-0.9629,0.2313,-0.1383,0.0157,132.6900,-26.3200,-70.4300,10.1600,4.1800,8.3200,0.0000,0.0000,-0.0000,1555.0000,1081.0000,1500.0000,1998.0000
230635.6270,2.0000,1997.0000,1028.0000,1866.0000,-7.0000,-191.0000,11.0000,1046.0000,-777.0000,10947.0000,-0.9660,0.2331,-0.1114,0.0074,132.8800,-26.2300,-70.2200,10.5100,4.0400,7.7900,0.0000,0.0000,-0.0000,1555.0000,1081.0000,1500.0000,1998.0000
230652.3790,2.0000,1997.0000,1028.0000,1866.0000,-1.0000,-189.0000,10.0000,1391.0000,-738.0000,12088.0000,-0.9686,0.2338,-0.0848,-0.0005,133.0700,-26.1400,-70.0100,10.8200,3.8300,7.1300,0.0000,0.0000,-0.0000,1555.0000,1081.0000,1500.0000,1998.0000
230669.2500,2.0000,1997.0000,1016.0000,1854.0000,-3.0000,-173.0000,7.0000,1363.0000,-854.0000,12972.0000,-0.9704,0.2340,-0.0591,-0.0080,133.0700,-26.1400,-70.0100,10.8200,3.8300,7.1300,0.0000,0.0000,-0.0000,1568.0000,1081.0000,1500.0000,1998.0000
230686.1010,2.0000,1997.0000,1015.0000,1853.0000,-12.0000,-158.0000,4.0000,1175.0000,-905.0000,13613.0000,-0.9713,0.2346,-0.0360,-0.0143,133.2600,-26.0600,-69.8200,11.0600,3.5700,6.3500,0.0000,0.0000,-0.0000,1568.0000,1081.0000,1500.0000,1998.0000
230702.6320,2.0000,1997.0000,1015.0000,1853.0000,-18.0000,-124.0000,2.0000,943.0000,-731.0000,12951.0000,-0.9713,0.2365,-0.0166,-0.0193,133.4500,-25.9900,-69.6400,11.2000,3.3000,5.4600,0.0000,0.0000,-0.0000,1568.0000,1081.0000,1500.0000,1998.0000
230719.5830,2.0000,1997.0000,1015.0000,1853.0000,-18.0000,-102.0000,0.0000,956.0000,-767.0000,12187.0000,-0.9708,0.2389,-0.0004,-0.0232,133.6300,-25.9300,-69.4900,11.2300,3.0400,4.5800,0.0000,0.0000,-0.0000,1568.0000,1081.0000,1500.0000,1998.0000
230736.5270,2.0000,1997.0000,1015.0000,1853.0000,-13.0000,-66.0000,-6.0000,964.0000,-632.0000,11157.0000,-0.9701,0.2410,0.0119,-0.0257,133.8100,-25.8800,-69.3600,11.2100,2.8200,3.7900,0.0000,0.0000,-0.0000,1568.0000,1081.0000,1500.0000,1998.0000
230753.2710,2.0000,1997.0000,1015.0000,1853.0000,-7.0000,-57.0000,-12.0000,980.0000,-670.0000,10429.0000,-0.9697,0.2420,0.0207,-0.0263,133.9800,-25.8300,-69.2400,11.1600,2.6500,3.0900,0.0000,0.0000,-0.0000,1568.0000,1081.0000,1500.0000,1998.0000
230770.2070,2.0000,1997.0000,1027.0000,1865.0000,-4.0000,-46.0000,-14.0000,873.0000,-466.0000,8601.0000,-0.9694,0.2426,0.0281,-0.0262,133.9800,-25.8300,-69.2400,11.1600,2.6500,3.0900,0.0000,0.0000,-0.0000,1556.0000,1081.0000,1500.0000,1998.0000
230787.2060,2.0000,1997.0000,1027.0000,1865.0000,0.0000,-50.0000,-16.0000,876.0000,-852.0000,8447.0000,-0.9692,0.2425,0.0352,-0.0257,134.1300,-25.7900,-69.1400,11.0900,2.5500,2.5300,0.0000,0.0000,-0.0000,1556.0000,1081.0000,1500.0000,1998.0000
230803.9910,2.0000,1997.0000,1027.0000,1865.0000,3.0000,-52.0000,-15.0000,878.0000,-937.0000,8024.0000,-0.9691,0.2418,0.0428,-0.0251,134.2800,-25.7500,-69.0500,11.0100,2.5200,2.0500,0.0000,0.0000,-0.0000,1556.0000,1081.0000,1500.0000,1998.0000
230820.7790,2.0000,1997.0000,1027.0000,1865.0000,5.0000,-78.0000,-13.0000,858.0000,-689.0000,6854.0000,-0.9688,0.2410,0.0523,-0.0254,134.4200,-25.7100,-68.9700,10.9100,2.5400,1.6200,0.0000,0.0000,-0.0000,1556.0000,1081.0000,1500.0000,1998.0000
230837.1690,2.0000,1997.0000,1027.0000,1865.0000,9.0000,-98.0000,-9.0000,748.0000,-588.0000,6419.0000,-0.9683,0.2397,0.0652,-0.0269,134.5500,-25.6700,-68.8900,10.8000,2.6000,1.3300,0.0000,0.0000,-0.0000,1556.0000,1081.0000,1500.0000,1998.0000
230854.1310,2.0000,1997.0000,1040.0000,1878.0000,16.0000,-118.0000,-3.0000,658.0000,-822.0000,7173.0000,-0.9676,0.2375,0.0806,-0.0300,134.6700,-25.6400,-68.8200,10.6700,2.6600,1.0500,0.0000,0.0000,-0.0000,1500.0000,1081.0000,1500.0000,1998.0000
230871.0510,2.0000,1997.0000,1081.0000,1919.0000,22.0000,-146.0000,0.0000,763.0000,-1151.0000,8498.0000,-0.9665,0.2341,0.0997,-0.0346,134.6700,-25.6400,-68.8200,10.6700,2.6600,1.0500,0.0000,0.0000,-0.0000,1500.0000,1081.0000,1500.0000,1998.0000
230888.1500,2.0000,1997.0000,1081.0000,1919.0000,20.0000,-165.0000,3.0000,840.0000,-1117.0000,9329.0000,-0.9646,0.2300,0.1221,-0.0406,134.7700,-25.6000,-68.7600,10.4900,2.7000,0.6500,0.0000,0.0000,-0.0000,1500.0000,1081.0000,1500.0000,1998.0000
230905.1770,2.0000,1997.0000,1081.0000,1919.0000,12.0000,-174.0000,10.0000,1132.0000,-1020.0000,10130.0000,-0.9618,0.2267,0.1459,-0.0475,134.8800,-25.5700,-68.7000,10.2700,2.6900,0.1400,0.0000,0.0000,-0.0000,1500.0000,1081.0000,1500.0000,1998.0000
230922.2930,2.0000,1997.0000,1081.0000,1919.0000,7.0000,-173.0000,15.0000,1354.0000,-955.0000,11017.0000,-0.9578,0.2245,0.1706,-0.0552,134.9700,-25.5400,-68.6600,10.0200,2.6400,-0.4500,0.0000,0.0000,-0.0000,1500.0000,1081.0000,1500.0000,1998.0000
230939.2360,2.0000,1997.0000,1081.0000,1919.0000,1.0000,-172.0000,17.0000,1479.0000,-944.0000,11773.0000,-0.9532,0.2229,0.1943,-0.0630,135.0600,-25.5100,-68.6400,9.7200,2.5400,-1.1200,0.0000,0.0000,-0.0000,1500.0000,1081.0000,1500.0000,1998.0000
230956.0520,2.0000,1997.0000,1081.0000,1919.0000,-8.0000,-154.0000,16.0000,1476.0000,-817.0000,12042.0000,-0.9480,0.2224,0.2164,-0.0703,135.1300,-25.4800,-68.6200,9.3600,2.4300,-1.8400,0.0000,0.0000,-0.0000,1500.0000,1081.0000,1500.0000,1998.0000
230973.0520,2.0000,1997.0000,1043.0000,1881.0000,-14.0000,-130.0000,13.0000,1228.0000,-644.0000,11832.0000,-0.9427,0.2231,0.2361,-0.0765,135.1300,-25.4800,-68.6200,9.3600,2.4300,-1.8400,0.0000,0.0000,-0.0000,1541.0000,1081.0000,1500.0000,1998.0000
230989.8190,2.0000,1997.0000,1042.0000,1880.0000,-21.0000,-110.0000,10.0000,1170.0000,-604.0000,11480.0000,-0.9377,0.2246,0.2524,-0.0812,135.2000,-25.4600,-68.6200,8.9500,2.3100,-2.5400,0.0000,0.0000,-0.0000,1541.0000,1081.0000,1500.0000,1998.0000
231006.5320,2.0000,1997.0000,1042.0000,1880.0000,-24.0000,-84.0000,7.0000,1109.0000,-515.0000,10635.0000,-0.9331,0.2270,0.2657,-0.0845,135.2600,-25.4400,-68.6400,8.5400,2.2200,-3.1900,0.0000,0.0000,-0.0000,1541.0000,1081.0000,1500.0000,1998.0000
231023.4560,2.0000,1997.0000,1042.0000,1880.0000,-22.0000,-71.0000,2.0000,953.0000,-443.0000,9560.0000,-0.9293,0.2296,0.2761,-0.0865,135.3000,-25.4200,-68.6700,8.1700,2.1600,-3.7500,0.0000,0.0000,-0.0000,1541.0000,1081.0000,1500.0000,1998.0000
231040.2770,2.0000,1997.0000,1042.0000,1880.0000,-16.0000,-63.0000,-2.0000,857.0000,-601.0000,8969.0000,-0.9261,0.2311,0.2851,-0.0879,135.3400,-25.4000,-68.7000,7.8500,2.1500,-4.1900,0.0000,0.0000,-0.0000,1541.0000,1081.0000,1500.0000,1998.0000
231057.5810,2.0000,1997.0000,1042.0000,1880.0000,-16.0000,-53.0000,-3.0000,978.0000,-543.0000,8305.0000,-0.9230,0.2322,0.2936,-0.0889,135.4400,-25.3900,-68.7300,7.6500,2.0100,-4.5600,0.0000,0.0000,-0.0000,1541.0000,1081.0000,1500.0000,1998.0000
231074.3580,2.0000,1997.0000,1041.0000,1879.0000,-18.0000,-53.0000,-5.0000,892.0000,-550.0000,7682.0000,-0.9202,0.2335,0.3013,-0.0894,135.4400,-25.3900,-68.7300,7.6500,2.0100,-4.5600,0.0000,0.0000,-0.0000,1542.0000,1081.0000,1500.0000,1998.0000
231091.4170,2.0000,1997.0000,1041.0000,1879.0000,-15.0000,-64.0000,-4.0000,785.0000,-777.0000,7121.0000,-0.9172,0.2346,0.3091,-0.0901,135.7700,-25.3800,-68.7200,7.6900,1.3500,-4.8800,0.0000,0.0000,-0.0000,1542.0000,1081.0000,1500.0000,1998.0000
231108.2350,2.0000,1997.0000,1041.0000,1879.0000,-13.0000,-77.0000,0.0000,510.0000,-1069.0000,6888.0000,-0.9134,0.2355,0.3191,-0.0917,136.0900,-25.3800,-68.7200,7.7400,0.7900,-5.1300,0.0000,0.0000,-0.0000,1542.0000,1081.0000,1500.0000,1998.0000
231125.2290,2.0000,1997.0000,1041.0000,1879.0000,-14.0000,-83.0000,5.0000,654.0000,-1196.0000,6877.0000,-0.9090,0.2365,0.3301,-0.0941,136.3900,-25.3900,-68.7200,7.7600,0.3200,-5.3300,0.0000,0.0000,-0.0000,1542.0000,1081.0000,1500.0000,1998.0000
231141.8870,2.0000,1997.0000,1041.0000,1879.0000,-9.0000,-95.0000,8.0000,831.0000,-954.0000,6488.0000,-0.9041,0.2371,0.3419,-0.0975,136.7000,-25.4100,-68.7200,7.7700,-0.0900,-5.5200,0.0000,0.0000,-0.0000,1542.0000,1081.0000,1500.0000,1998.0000
231158.6030,2.0000,1997.0000,1041.0000,1879.0000,-1.0000,-126.0000,9.0000,897.0000,-928.0000,6830.0000,-0.8984,0.2364,0.3559,-0.1022,136.9900,-25.4400,-68.7200,7.7300,-0.5100,-5.6900,0.0000,0.0000,-0.0000,1542.0000,1081.0000,1500.0000,1998.0000
231175.6790,2.0000,1997.0000,1121.0000,1959.0000,6.0000,-137.0000,9.0000,1068.0000,-574.0000,6955.0000,-0.8914,0.2342,0.3727,-0.1083,136.9900,-25.4400,-68.7200,7.7300,-0.5100,-5.6900,0.0000,0.0000,-0.0000,1459.0000,1081.0000,1500.0000,1998.0000
231192.6030,2.0000,1997.0000,1121.0000,1959.0000,5.0000,-156.0000,11.0000,1151.0000,-653.0000,7802.0000,-0.8830,0.2315,0.3918,-0.1151,137.3000,-25.5000,-68.7300,7.5100,-0.9600,-5.8800,0.0000,0.0000,-0.0000,1459.0000,1081.0000,1500.0000,1998.0000
231209.5510,2.0000,1997.0000,1121.0000,1959.0000,-7.0000,-154.0000,17.0000,1244.0000,-738.0000,8641.0000,-0.8737,0.2296,0.4112,-0.1222,137.5900,-25.5600,-68.7500,7.2300,-1.3900,-6.1000,0.0000,0.0000,-0.0000,1459.0000,1081.0000,1500.0000,1998.0000
231226.4150,2.0000,1997.0000,1121.0000,1959.0000,-13.0000,-163.0000,20.0000,1406.0000,-925.0000,9585.0000,-0.8631,0.2291,0.4312,-0.1291,137.8500,-25.6300,-68.7800,6.8600,-1.7800,-6.3800,0.0000,0.0000,-0.0000,1459.0000,1081.0000,1500.0000,1998.0000
231243.1500,2.0000,1997.0000,1121.0000,1959.0000,-15.0000,-163.0000,21.0000,1490.0000,-965.0000,10106.0000,-0.8518,0.2292,0.4510,-0.1361,138.0900,-25.7000,-68.8200,6.4000,-2.1300,-6.7100,0.0000,0.0000,-0.0000,1459.0000,1081.0000,1500.0000,1998.0000
231259.6920,2.0000,1997.0000,1063.0000,1901.0000,-21.0000,-154.0000,21.0000,1503.0000,-650.0000,9967.0000,-0.8402,0.2297,0.4702,-0.1426,138.3200,-25.7700,-68.8700,5.8800,-2.4700,-7.0300,0.0000,0.0000,-0.0000,1547.0000,1081.0000,1500.0000,1998.0000
231276.6000,2.0000,1997.0000,1036.0000,1874.0000,-34.0000,-139.0000,21.0000,1416.0000,-651.0000,10188.0000,-0.8284,0.2315,0.4881,-0.1481,138.3200,-25.7700,-68.8700,5.8800,-2.4700,-7.0300,0.0000,0.0000,-0.0000,1547.0000,1081.0000,1500.0000,1998.0000
231293.3630,2.0000,1997.0000,1036.0000,1874.0000,-33.0000,-117.0000,20.0000,1298.0000,-697.0000,9911.0000,-0.8174,0.2346,0.5036,-0.1522,138.5600,-25.8700,-68.9300,5.3100,-2.8300,-7.3200,0.0000,0.0000,-0.0000,1547.0000,1081.0000,1500.0000,1998.0000
231310.2920,2.0000,1997.0000,1036.0000,1874.0000,-32.0000,-106.0000,13.0000,1348.0000,-578.0000,9374.0000,-0.8077,0.2373,0.5168,-0.1554,138.7700,-25.9700,-69.0000,4.7600,-3.1300,-7.5600,0.0000,0.0000,-0.0000,1547.0000,1081.0000,1500.0000,1998.0000
231327.1750,2.0000,1997.0000,1036.0000,1874.0000,-22.0000,-84.0000,10.0000,1204.0000,-599.0000,8785.0000,-0.7994,0.2394,0.5280,-0.1576,138.9600,-26.0700,-69.0700,4.2700,-3.3900,-7.7400,0.0000,0.0000,-0.0000,1547.0000,1081.0000,1500.0000,1998.0000
231343.7350,2.0000,1997.0000,1036.0000,1874.0000,-22.0000,-72.0000,7.0000,1074.0000,-663.0000,8181.0000,-0.7927,0.2411,0.5369,-0.1592,139.1500,-26.1700,-69.1400,3.8900,-3.6000,-7.8600,0.0000,0.0000,-0.0000,1547.0000,1081.0000,1500.0000,1998.0000
231360.6210,2.0000,1997.0000,1056.0000,1894.0000,-20.0000,-56.0000,5.0000,1303.0000,-693.0000,7614.0000,-0.7871,0.2430,0.5439,-0.1601,139.1500,-26.1700,-69.1400,3.8900,-3.6000,-7.8600,0.0000,0.0000,-0.0000,1527.0000,1081.0000,1500.0000,1998.0000
231377.5110,2.0000,1997.0000,1056.0000,1894.0000,-19.0000,-46.0000,3.0000,1247.0000,-812.0000,7138.0000,-0.7819,0.2443,0.5506,-0.1608,139.3300,-26.2900,-69.2100,3.5100,-3.7900,-7.9500,0.0000,0.0000,-0.0000,1527.0000,1081.0000,1500.0000,1998.0000
231394.2700,2.0000,1997.0000,1056.0000,1894.0000,-9.0000,-56.0000,1.0000,1150.0000,-394.0000,5676.0000,-0.7773,0.2450,0.5565,-0.1615,139.5300,-26.4200,-69.2900,3.1100,-3.9900,-8.0300,0.0000,0.0000,-0.0000,1527.0000,1081.0000,1500.0000,1998.0000
231411.2400,2.0000,1997.0000,1056.0000,1894.0000,-5.0000,-64.0000,0.0000,1177.0000,-384.0000,5078.0000,-0.7721,0.2444,0.5636,-0.1630,139.7100,-26.5500,-69.3600,2.8500,-4.1500,-8.0300,0.0000,0.0000,-0.0000,1527.0000,1081.0000,1500.0000,1998.0000
231428.1000,2.0000,1997.0000,1056.0000,1894.0000,-4.0000,-80.0000,-1.0000,1514.0000,-501.0000,5410.0000,-0.7661,0.2431,0.5717,-0.1650,139.8700,-26.6700,-69.4400,2.6700,-4.2900,-7.9900,0.0000,0.0000,-0.0000,1527.0000,1081.0000,1500.0000,1998.0000
231444.8390,2.0000,1997.0000,1056.0000,1894.0000,-3.0000,-94.0000,0.0000,1590.0000,-485.0000,5343.0000,-0.7587,0.2415,0.5814,-0.1675,140.0300,-26.7900,-69.5200,2.4800,-4.4100,-7.9700,0.0000,0.0000,-0.0000,1527.0000,1081.0000,1500.0000,1998.0000
231461.6260,2.0000,1997.0000,1080.0000,1918.0000,-5.0000,-113.0000,0.0000,1610.0000,-502.0000,5460.0000,-0.7497,0.2394,0.5928,-0.1707,140.0300,-26.7900,-69.5200,2.4800,-4.4100,-7.9700,0.0000,0.0000,-0.0000,1503.0000,1081.0000,1500.0000,1998.0000
231478.3440,2.0000,1997.0000,1080.0000,1918.0000,-1.0000,-135.0000,3.0000,1347.0000,-525.0000,5478.0000,-0.7388,0.2367,0.6062,-0.1751,140.1800,-26.9200,-69.6000,2.2000,-4.5200,-7.9400,0.0000,0.0000,-0.0000,1503.0000,1081.0000,1500.0000,1998.0000
231495.1080,2.0000,1997.0000,1080.0000,1918.0000,-3.0000,-138.0000,7.0000,1501.0000,-451.0000,5879.0000,-0.7263,0.2340,0.6208,-0.1800,140.3200,-27.0600,-69.6900,1.7600,-4.6000,-7.8900,0.0000,0.0000,-0.0000,1503.0000,1081.0000,1500.0000,1998.0000
231511.8170,2.0000,1997.0000,1080.0000,1918.0000,-8.0000,-150.0000,7.0000,1611.0000,-556.0000,6503.0000,-0.7128,0.2315,0.6357,-0.1849,140.4500,-27.1900,-69.7700,1.3200,-4.6600,-7.8200,0.0000,0.0000,-0.0000,1503.0000,1081.0000,1500.0000,1998.0000
231528.8650,2.0000,1997.0000,1080.0000,1918.0000,-11.0000,-154.0000,11.0000,1527.0000,-835.0000,7238.0000,-0.6978,0.2291,0.6515,-0.1902,140.5700,-27.3200,-69.8400,0.8400,-4.7000,-7.7400,0.0000,0.0000,-0.0000,1503.0000,1081.0000,1500.0000,1998.0000
231545.5050,2.0000,1997.0000,1080.0000,1918.0000,-10.0000,-166.0000,12.0000,1701.0000,-806.0000,7587.0000,-0.6818,0.2269,0.6675,-0.1955,140.6800,-27.4500,-69.9100,0.3300,-4.6900,-7.6700,0.0000,0.0000,-0.0000,1503.0000,1081.0000,1500.0000,1998.0000
231562.3060,2.0000,1997.0000,1080.0000,1918.0000,-13.0000,-164.0000,14.0000,1688.0000,-725.0000,7665.0000,-0.6649,0.2246,0.6834,-0.2011,140.6800,-27.4500,-69.9100,0.3300,-4.6900,-7.6700,0.0000,0.0000,-0.0000,1503.0000,1081.0000,1500.0000,1998.0000
231579.2340,2.0000,1997.0000,1031.0000,1867.0000,-8.0000,-158.0000,16.0000,1765.0000,-610.0000,7822.0000,-0.6476,0.2225,0.6988,-0.2067,140.7800,-27.5800,-69.9800,-0.2300,-4.7100,-7.5700,0.0000,0.0000,-0.0000,1553.0000,1082.0000,1500.0000,1998.0000
231596.2960,2.0000,1997.0000,1031.0000,1867.0000,-15.0000,-153.0000,15.0000,1834.0000,-549.0000,7986.0000,-0.6302,0.2205,0.7136,-0.2121,140.8700,-27.7300,-70.0400,-0.9400,-4.7600,-7.4300,0.0000,0.0000,-0.0000,1553.0000,1082.0000,1500.0000,1998.0000
231613.3220,2.0000,1997.0000,1031.0000,1867.0000,-15.0000,-141.0000,13.0000,2035.0000,-510.0000,8028.0000,-0.6138,0.2191,0.7270,-0.2164,140.9400,-27.8700,-70.1100,-1.5800,-4.7900,-7.2600,0.0000,0.0000,-0.0000,1553.0000,1082.0000,1500.0000,1998.0000
231630.3360,2.0000,1997.0000,1031.0000,1867.0000,-13.0000,-127.0000,12.0000,1910.0000,-644.0000,7947.0000,-0.5983,0.2176,0.7390,-0.2202,140.9900,-28.0100,-70.1700,-2.1600,-4.8000,-7.0700,0.0000,0.0000,-0.0000,1553.0000,1082.0000,1500.0000,1998.0000
231646.9880,2.0000,1997.0000,1031.0000,1867.0000,-12.0000,-111.0000,13.0000,1618.0000,-635.0000,7463.0000,-0.5848,0.2162,0.7491,-0.2238,141.0400,-28.1300,-70.2300,-2.6400,-4.7700,-6.8700,0.0000,0.0000,-0.0000,1553.0000,1082.0000,1500.0000,1998.0000
231663.9220,2.0000,1998.0000,1570.0000,1000.0000,-10.0000,-103.0000,13.0000,1623.0000,-476.0000,6791.0000,-0.5723,0.2153,0.7581,-0.2269,141.0400,-28.1300,-70.2300,-2.6400,-4.7700,-6.8700,0.0000,0.0000,-0.0000,1806.0000,1876.0000,1500.0000,1999.0000
231680.5690,2.0000,1998.0000,1570.0000,1000.0000,-7.0000,-85.0000,13.0000,1804.0000,-451.0000,6301.0000,-0.5610,0.2142,0.7659,-0.2300,141.0600,-28.2600,-70.2900,-3.1000,-4.7400,-6.6400,0.0000,0.0000,-0.0000,1806.0000,1876.0000,1500.0000,1999.0000
231697.3630,2.0000,1998.0000,1570.0000,1000.0000,-8.0000,-61.0000,15.0000,1504.0000,-592.0000,6409.0000,-0.5519,0.2140,0.7717,-0.2323,141.0800,-28.4100,-70.3600,-3.5900,-4.7500,-6.4300,0.0000,0.0000,-0.0000,1806.0000,1876.0000,1500.0000,1999.0000
231714.2510,2.0000,1998.0000,1570.0000,1000.0000,-6.0000,-37.0000,17.0000,1402.0000,-471.0000,5850.0000,-0.5453,0.2147,0.7756,-0.2345,141.0800,-28.5400,-70.4300,-4.0000,-4.7200,-6.2100,0.0000,0.0000,-0.0000,1806.0000,1876.0000,1500.0000,1999.0000
231731.4740,2.0000,1998.0000,1570.0000,1000.0000,2.0000,-15.0000,18.0000,1563.0000,-503.0000,5545.0000,-0.5416,0.2159,0.7772,-0.2366,141.0600,-28.6700,-70.5100,-4.3500,-4.6800,-5.9800,0.0000,0.0000,-0.0000,1806.0000,1876.0000,1500.0000,1999.0000
231747.8090,2.0000,1998.0000,1570.0000,1000.0000,26.0000,27.0000,21.0000,1917.0000,-334.0000,5088.0000,-0.5423,0.2174,0.7755,-0.2392,141.0400,-28.7800,-70.5900,-4.6200,-4.6800,-5.7700,0.0000,0.0000,-0.0000,1806.0000,1876.0000,1500.0000,1999.0000
231764.6630,2.0000,1998.0000,1761.0000,1069.0000,67.0000,59.0000,23.0000,1852.0000,-405.0000,4642.0000,-0.5480,0.2176,0.7696,-0.2450,141.0400,-28.7800,-70.5900,-4.6200,-4.6800,-5.7700,0.0000,0.0000,-0.0000,1587.0000,1847.0000,1500.0000,1999.0000
231781.4600,2.0000,1998.0000,1761.0000,1069.0000,132.0000,113.0000,29.0000,1661.0000,-468.0000,3709.0000,-0.5596,0.2153,0.7582,-0.2563,141.0100,-28.9000,-70.6700,-4.9400,-4.6700,-5.6100,0.0000,0.0000,-0.0000,1587.0000,1847.0000,1500.0000,1999.0000
231798.0790,2.0000,1998.0000,1761.0000,1069.0000,170.0000,161.0000,34.0000,1855.0000,-583.0000,2754.0000,-0.5781,0.2113,0.7399,-0.2715,140.9600,-29.0300,-70.7500,-5.3000,-4.6300,-5.4800,0.0000,0.0000,-0.0000,1587.0000,1847.0000,1500.0000,1999.0000
231815.0160,2.0000,1998.0000,1761.0000,1069.0000,179.0000,209.0000,40.0000,1911.0000,-233.0000,842.0000,-0.6018,0.2071,0.7155,-0.2883,140.9000,-29.1500,-70.8400,-5.5000,-4.6100,-5.4500,0.0000,0.0000,-0.0000,1587.0000,1847.0000,1500.0000,1999.0000
231831.9320,2.0000,1998.0000,1761.0000,1069.0000,175.0000,254.0000,47.0000,2140.0000,-155.0000,-1173.0000,-0.6293,0.2055,0.6852,-0.3037,140.8500,-29.2700,-70.9300,-5.4700,-4.6400,-5.4800,0.0000,0.0000,-0.0000,1587.0000,1847.0000,1500.0000,1999.0000
231848.7690,2.0000,1998.0000,1761.0000,1069.0000,160.0000,280.0000,53.0000,1954.0000,30.0000,-3855.0000,-0.6587,0.2066,0.6503,-0.3171,140.8200,-29.3800,-71.0300,-5.1800,-4.7200,-5.5400,0.0000,0.0000,-0.0000,1587.0000,1847.0000,1500.0000,1999.0000
231865.6890,2.0000,1978.0000,2000.0000,1783.0000,142.0000,272.0000,55.0000,1627.0000,-186.0000,-6179.0000,-0.6864,0.2095,0.6141,-0.3285,140.8200,-29.3800,-71.0300,-5.1800,-4.7200,-5.5400,0.0000,0.0000,-0.0000,1049.0000,1670.0000,1500.0000,1980.0000
231882.4710,2.0000,1978.0000,2000.0000,1783.0000,124.0000,243.0000,57.0000,1762.0000,-161.0000,-7816.0000,-0.7099,0.2127,0.5797,-0.3388,140.7700,-29.5100,-71.1600,-4.7700,-4.8400,-5.8300,0.0000,0.0000,-0.0000,1049.0000,1670.0000,1500.0000,1980.0000
231899.1320,2.0000,1978.0000,2000.0000,1783.0000,94.0000,192.0000,53.0000,1900.0000,108.0000,-8370.0000,-0.7280,0.2155,0.5499,-0.3480,140.7200,-29.6500,-71.3400,-4.3500,-5.0000,-6.0000,0.0000,0.0000,-0.0000,1049.0000,1670.0000,1500.0000,1980.0000
231915.7020,2.0000,1978.0000,2000.0000,1783.0000,40.0000,142.0000,48.0000,1949.0000,260.0000,-7877.0000,-0.7398,0.2197,0.5278,-0.3547,140.6800,-29.7900,-71.5400,-3.9200,-5.1600,-6.0500,0.0000,0.0000,-0.0000,1049.0000,1670.0000,1500.0000,1980.0000
231932.4020,2.0000,1978.0000,2000.0000,1783.0000,-30.0000,88.0000,43.0000,1729.0000,111.0000,-7211.0000,-0.7459,0.2280,0.5141,-0.3570,140.6500,-29.9200,-71.7500,-3.5800,-5.2700,-5.9400,0.0000,0.0000,-0.0000,1049.0000,1670.0000,1500.0000,1980.0000
231949.2000,2.0000,1978.0000,2000.0000,1783.0000,-101.0000,33.0000,40.0000,1579.0000,96.0000,-6870.0000,-0.7455,0.2410,0.5099,-0.3552,140.6300,-30.0400,-71.9600,-3.3000,-5.3300,-5.7600,0.0000,0.0000,-0.0000,1049.0000,1670.0000,1500.0000,1980.0000
231965.7520,2.0000,1997.0000,1520.0000,1038.0000,-175.0000,-24.0000,39.0000,1685.0000,251.0000,-5871.0000,-0.7382,0.2581,0.5158,-0.3500,140.6300,-30.0400,-71.9600,-3.3000,-5.3300,-5.7600,0.0000,0.0000,-0.0000,1724.0000,1744.0000,1500.0000,1999.0000
231982.3550,2.0000,1998.0000,1520.0000,1036.0000,-225.0000,-60.0000,39.0000,1544.0000,-98.0000,-4542.0000,-0.7246,0.2796,0.5293,-0.3415,140.5900,-30.1800,-72.1700,-3.1600,-5.4400,-5.6000,0.0000,0.0000,-0.0000,1724.0000,1744.0000,1500.0000,1999.0000
231999.0280,2.0000,1998.0000,1520.0000,1036.0000,-249.0000,-87.0000,36.0000,1725.0000,-326.0000,-2852.0000,-0.7063,0.3032,0.5475,-0.3307,140.5300,-30.3300,-72.3900,-3.2200,-5.5900,-5.4900,0.0000,0.0000,-0.0000,1724.0000,1744.0000,1500.0000,1999.0000
232015.6700,2.0000,1998.0000,1520.0000,1036.0000,-239.0000,-100.0000,28.0000,1674.0000,-553.0000,-1350.0000,-0.6854,0.3254,0.5677,-0.3194,140.4800,-30.4700,-72.6200,-3.4800,-5.7200,-5.4600,0.0000,0.0000,-0.0000,1724.0000,1744.0000,1500.0000,1999.0000
232032.7810,2.0000,1998.0000,1520.0000,1036.0000,-192.0000,-88.0000,21.0000,1705.0000,-485.0000,-409.0000,-0.6648,0.3442,0.5868,-0.3087,140.4200,-30.6200,-72.8500,-3.8900,-5.8300,-5.4500,0.0000,0.0000,-0.0000,1724.0000,1744.0000,1500.0000,1999.0000
232049.4600,2.0000,1998.0000,1520.0000,1036.0000,-131.0000,-66.0000,14.0000,2027.0000,-195.0000,495.0000,-0.6485,0.3570,0.6011,-0.3012,140.4200,-30.6200,-72.8500,-3.8900,-5.8300,-5.4500,0.0000,0.0000,-0.0000,1724.0000,1744.0000,1500.0000,1999.0000
232066.3000,2.0000,1998.0000,1519.0000,1035.0000,-57.0000,-27.0000,6.0000,1839.0000,-356.0000,1666.0000,-0.6385,0.3641,0.6096,-0.2970,140.3500,-30.7800,-73.0800,-4.3000,-6.0400,-5.4100,0.0000,0.0000,-0.0000,1726.0000,1744.0000,1500.0000,1999.0000
232083.1780,2.0000,1998.0000,1518.0000,1034.0000,12.0000,17.0000,0.0000,1472.0000,-392.0000,1945.0000,-0.6365,0.3652,0.6112,-0.2964,140.2500,-30.9600,-73.3100,-4.7200,-6.3500,-5.3300,0.0000,0.0000,-0.0000,1726.0000,1744.0000,1500.0000,1999.0000
232100.1950,2.0000,1998.0000,1518.0000,1034.0000,64.0000,54.0000,-2.0000,1583.0000,-425.0000,1437.0000,-0.6419,0.3625,0.6062,-0.2984,140.1500,-31.1300,-73.5200,-5.1500,-6.5800,-5.1800,0.0000,0.0000,-0.0000,1726.0000,1744.0000,1500.0000,1999.0000
232116.6920,2.0000,1998.0000,1518.0000,1034.0000,111.0000,89.0000,-3.0000,1491.0000,-305.0000,390.0000,-0.6527,0.3563,0.5961,-0.3029,140.0500,-31.3000,-73.7000,-5.4500,-6.7700,-5.0500,0.0000,0.0000,-0.0000,1726.0000,1744.0000,1500.0000,1999.0000
232133.5920,2.0000,1998.0000,1518.0000,1034.0000,148.0000,123.0000,-2.0000,1552.0000,-274.0000,-530.0000,-0.6687,0.3473,0.5803,-0.3091,139.9500,-31.4600,-73.8800,-5.5800,-6.9100,-4.9300,0.0000,0.0000,-0.0000,1726.0000,1744.0000,1500.0000,1999.0000
232150.2180,2.0000,1997.0000,1903.0000,1401.0000,179.0000,154.0000,0.0000,1724.0000,-345.0000,-1404.0000,-0.6879,0.3365,0.5599,-0.3164,139.9500,-31.4600,-73.8800,-5.5800,-6.9100,-4.9300,0.0000,0.0000,-0.0000,1269.0000,1755.0000,1500.0000,1998.0000
232166.9300,2.0000,1997.0000,1984.0000,1476.0000,199.0000,158.0000,3.0000,1683.0000,-335.0000,-2551.0000,-0.7094,0.3239,0.5351,-0.3249,139.8400,-31.6400,-74.0500,-5.5200,-7.0700,-4.8500,0.0000,0.0000,-0.0000,1269.0000,1755.0000,1500.0000,1998.0000
232183.6220,2.0000,1997.0000,1984.0000,1476.0000,203.0000,168.0000,7.0000,1767.0000,-263.0000,-3618.0000,-0.7305,0.3103,0.5083,-0.3341,139.7300,-31.8300,-74.2200,-5.2900,-7.2400,-4.7700,0.0000,0.0000,-0.0000,1269.0000,1755.0000,1500.0000,1998.0000
232200.4850,2.0000,1997.0000,1984.0000,1476.0000,181.0000,154.0000,10.0000,1880.0000,-285.0000,-4218.0000,-0.7500,0.2972,0.4812,-0.3430,139.6400,-32.0200,-74.4000,-4.9700,-7.3800,-4.7500,0.0000,0.0000,-0.0000,1269.0000,1755.0000,1500.0000,1998.0000
232217.1730,2.0000,1997.0000,1984.0000,1476.0000,130.0000,135.0000,13.0000,1932.0000,-298.0000,-4428.0000,-0.7656,0.2870,0.4572,-0.3500,139.5600,-32.2000,-74.5800,-4.6000,-7.4900,-4.6800,0.0000,0.0000,-0.0000,1269.0000,1755.0000,1500.0000,1998.0000
232233.9540,2.0000,1997.0000,1984.0000,1476.0000,60.0000,115.0000,18.0000,1875.0000,-51.0000,-4620.0000,-0.7766,0.2836,0.4378,-0.3534,139.4800,-32.3700,-74.7700,-4.2400,-7.5900,-4.5600,0.0000,0.0000,-0.0000,1269.0000,1755.0000,1500.0000,1998.0000
232250.4830,2.0000,1997.0000,1984.0000,1476.0000,-6.0000,85.0000,21.0000,1657.0000,-373.0000,-4391.0000,-0.7824,0.2864,0.4250,-0.3539,139.4800,-32.3700,-74.7700,-4.2400,-7.5900,-4.5600,0.0000,0.0000,-0.0000,1269.0000,1755.0000,1500.0000,1998.0000
232267.2250,2.0000,1998.0000,1523.0000,1049.0000,-60.0000,62.0000,25.0000,1835.0000,-407.0000,-3873.0000,-0.7839,0.2950,0.4175,-0.3524,139.4100,-32.5600,-74.9600,-3.9100,-7.7000,-4.4100,0.0000,0.0000,-0.0000,1717.0000,1739.0000,1500.0000,1999.0000
232284.0680,2.0000,1998.0000,1522.0000,1048.0000,-94.0000,42.0000,29.0000,1713.0000,-376.0000,-3553.0000,-0.7817,0.3079,0.4149,-0.3493,139.3400,-32.7600,-75.1400,-3.6200,-7.8300,-4.2600,0.0000,0.0000,-0.0000,1717.0000,1739.0000,1500.0000,1999.0000
232300.7540,2.0000,1998.0000,1522.0000,1048.0000,-101.0000,24.0000,31.0000,1846.0000,-756.0000,-2809.0000,-0.7770,0.3222,0.4154,-0.3462,139.2800,-32.9500,-75.3300,-3.4000,-7.9300,-4.0800,0.0000,0.0000,-0.0000,1717.0000,1739.0000,1500.0000,1999.0000
232317.5010,2.0000,1998.0000,1522.0000,1048.0000,-77.0000,17.0000,32.0000,1915.0000,-735.0000,-2394.0000,-0.7718,0.3352,0.4165,-0.3442,139.2200,-33.1400,-75.5100,-3.2300,-8.0300,-3.9700,0.0000,0.0000,-0.0000,1717.0000,1739.0000,1500.0000,1999.0000
232334.3030,2.0000,1998.0000,1522.0000,1048.0000,-27.0000,10.0000,34.0000,1439.0000,-935.0000,-2135.0000,-0.7677,0.3434,0.4169,-0.3449,139.2200,-33.1400,-75.5100,-3.2300,-8.0300,-3.9700,0.0000,0.0000,-0.0000,1717.0000,1739.0000,1500.0000,1999.0000
232350.9670,2.0000,1998.0000,1522.0000,1048.0000,22.0000,9.0000,35.0000,1152.0000,-923.0000,-1776.0000,-0.7655,0.3456,0.4154,-0.3492,139.1700,-33.3200,-75.6800,-3.1200,-8.0900,-3.8900,0.0000,0.0000,-0.0000,1717.0000,1739.0000,1500.0000,1999.0000
232367.7750,2.0000,1998.0000,1524.0000,1064.0000,61.0000,17.0000,37.0000,1584.0000,-655.0000,-1323.0000,-0.7660,0.3438,0.4104,-0.3559,139.1200,-33.5200,-75.8600,-2.9600,-8.1900,-3.8200,0.0000,0.0000,-0.0000,1708.0000,1732.0000,1500.0000,1999.0000
232384.4030,2.0000,1998.0000,1524.0000,1064.0000,95.0000,32.0000,40.0000,1569.0000,-442.0000,-1167.0000,-0.7688,0.3385,0.4023,-0.3641,139.0700,-33.7300,-76.0500,-2.7800,-8.3900,-3.7500,0.0000,0.0000,-0.0000,1708.0000,1732.0000,1500.0000,1999.0000
232401.1890,2.0000,1998.0000,1524.0000,1064.0000,122.0000,46.0000,44.0000,1646.0000,-347.0000,-1010.0000,-0.7737,0.3307,0.3903,-0.3738,139.0200,-33.9400,-76.2300,-2.6400,-8.5900,-3.6600,0.0000,0.0000,-0.0000,1708.0000,1732.0000,1500.0000,1999.0000
232418.0250,2.0000,1998.0000,1524.0000,1064.0000,141.0000,65.0000,49.0000,1613.0000,-685.0000,-593.0000,-0.7800,0.3209,0.3751,-0.3847,138.9900,-34.1400,-76.4100,-2.5300,-8.7600,-3.5600,0.0000,0.0000,-0.0000,1708.0000,1732.0000,1500.0000,1999.0000
232434.6610,2.0000,1998.0000,1524.0000,1064.0000,156.0000,85.0000,54.0000,1587.0000,-732.0000,-694.0000,-0.7875,0.3105,0.3562,-0.3957,138.9900,-34.1400,-76.4100,-2.5300,-8.7600,-3.5600,0.0000,0.0000,-0.0000,1708.0000,1732.0000,1500.0000,1999.0000
232451.2590,2.0000,1998.0000,1524.0000,1064.0000,171.0000,106.0000,59.0000,1565.0000,-346.0000,-1499.0000,-0.7958,0.2998,0.3335,-0.4069,138.9500,-34.3300,-76.5700,-2.4300,-8.9000,-3.4800,0.0000,0.0000,-0.0000,1708.0000,1732.0000,1500.0000,1999.0000
232468.1900,2.0000,1996.0000,2000.0000,1541.0000,184.0000,116.0000,63.0000,1789.0000,-226.0000,-1730.0000,-0.8046,0.2883,0.3074,-0.4184,138.9200,-34.5500,-76.7400,-2.2100,-9.0900,-3.3300,0.0000,0.0000,-0.0000,1214.0000,1747.0000,1500.0000,1997.0000
232485.0460,2.0000,1996.0000,2000.0000,1541.0000,191.0000,122.0000,67.0000,1699.0000,-356.0000,-2087.0000,-0.8131,0.2758,0.2790,-0.4300,138.8900,-34.7800,-76.9100,-1.9200,-9.3100,-3.1500,0.0000,0.0000,-0.0000,1214.0000,1747.0000,1500.0000,1997.0000
232502.0870,2.0000,1996.0000,2000.0000,1541.0000,168.0000,131.0000,69.0000,1612.0000,-55.0000,-2868.0000,-0.8206,0.2643,0.2494,-0.4411,138.8700,-35.0000,-77.0700,-1.6400,-9.4700,-2.9100,0.0000,0.0000,-0.0000,1214.0000,1747.0000,1500.0000,1997.0000
232518.8830,2.0000,1996.0000,2000.0000,1541.0000,113.0000,131.0000,71.0000,1608.0000,100.0000,-3084.0000,-0.8257,0.2580,0.2216,-0.4501,138.8500,-35.2200,-77.2200,-1.3700,-9.6000,-2.6200,0.0000,0.0000,-0.0000,1214.0000,1747.0000,1500.0000,1997.0000
232535.5410,2.0000,1996.0000,2000.0000,1541.0000,31.0000,130.0000,71.0000,1774.0000,354.0000,-3616.0000,-0.8274,0.2599,0.1985,-0.4566,138.8500,-35.2200,-77.2200,-1.3700,-9.6000,-2.6200,0.0000,0.0000,-0.0000,1214.0000,1747.0000,1500.0000,1997.0000
232552.1960,2.0000,1996.0000,2000.0000,1541.0000,-44.0000,120.0000,73.0000,1594.0000,385.0000,-3886.0000,-0.8253,0.2715,0.1813,-0.4607,138.8400,-35.4300,-77.3700,-1.1200,-9.7100,-2.2700,0.0000,0.0000,-0.0000,1214.0000,1747.0000,1500.0000,1997.0000
232569.0560,2.0000,1997.0000,1000.0000,1481.0000,-93.0000,104.0000,71.0000,1584.0000,353.0000,-3991.0000,-0.8201,0.2894,0.1699,-0.4636,138.8400,-35.6600,-77.5100,-0.8200,-9.8700,-1.8900,0.0000,0.0000,-0.0000,1774.0000,1246.0000,1500.0000,1998.0000
232585.6760,2.0000,1997.0000,1000.0000,1481.0000,-138.0000,98.0000,68.0000,1687.0000,346.0000,-3715.0000,-0.8122,0.3120,0.1633,-0.4652,138.8400,-35.9000,-77.6500,-0.5100,-10.0200,-1.4700,0.0000,0.0000,-0.0000,1774.0000,1246.0000,1500.0000,1998.0000
232602.2740,2.0000,1997.0000,1000.0000,1481.0000,-156.0000,82.0000,63.0000,1703.0000,262.0000,-3620.0000,-0.8026,0.3365,0.1598,-0.4658,138.8500,-36.1300,-77.7700,-0.2300,-10.1400,-1.0700,0.0000,0.0000,-0.0000,1774.0000,1246.0000,1500.0000,1998.0000
232619.1550,2.0000,1997.0000,1000.0000,1481.0000,-150.0000,56.0000,54.0000,1713.0000,163.0000,-3635.0000,-0.7918,0.3608,0.1596,-0.4662,138.8600,-36.3600,-77.8900,0.0200,-10.2300,-0.6900,0.0000,0.0000,-0.0000,1774.0000,1246.0000,1500.0000,1998.0000
232635.9930,2.0000,1997.0000,1000.0000,1481.0000,-126.0000,34.0000,44.0000,1771.0000,-1.0000,-3384.0000,-0.7816,0.3808,0.1617,-0.4668,138.8600,-36.3600,-77.8900,0.0200,-10.2300,-0.6900,0.0000,0.0000,-0.0000,1774.0000,1246.0000,1500.0000,1998.0000
232652.7310,2.0000,1997.0000,1000.0000,1550.0000,-84.0000,7.0000,29.0000,1558.0000,205.0000,-3634.0000,-0.7733,0.3952,0.1646,-0.4677,138.8800,-36.5700,-78.0000,0.2800,-10.2900,-0.3400,0.0000,0.0000,-0.0000,1811.0000,1110.0000,1500.0000,1998.0000
232669.7180,2.0000,1997.0000,1000.0000,1580.0000,-34.0000,-21.0000,11.0000,1308.0000,225.0000,-3475.0000,-0.7680,0.4018,0.1685,-0.4694,138.9000,-36.8100,-78.1000,0.6200,-10.4200,0.0200,0.0000,0.0000,-0.0000,1811.0000,1110.0000,1500.0000,1998.0000
232686.5090,2.0000,1997.0000,1000.0000,1580.0000,21.0000,-53.0000,-9.0000,1271.0000,418.0000,-2897.0000,-0.7665,0.3996,0.1734,-0.4720,138.9400,-37.0600,-78.1800,0.9400,-10.5500,0.4200,0.0000,0.0000,-0.0000,1811.0000,1110.0000,1500.0000,1998.0000
232703.4820,2.0000,1997.0000,1000.0000,1580.0000,53.0000,-80.0000,-27.0000,1260.0000,374.0000,-2061.0000,-0.7677,0.3904,0.1801,-0.4751,138.9700,-37.3000,-78.2600,1.1900,-10.6900,0.8200,0.0000,0.0000,-0.0000,1811.0000,1110.0000,1500.0000,1998.0000
232720.5810,2.0000,1997.0000,1000.0000,1580.0000,67.0000,-105.0000,-44.0000,1514.0000,328.0000,-384.0000,-0.7707,0.3766,0.1892,-0.4780,139.0200,-37.5300,-78.3300,1.3400,-10.8900,1.1800,0.0000,0.0000,-0.0000,1811.0000,1110.0000,1500.0000,1998.0000
232737.0620,2.0000,1997.0000,1000.0000,1580.0000,78.0000,-124.0000,-53.0000,1466.0000,-103.0000,1165.0000,-0.7743,0.3592,0.2005,-0.4809,139.0200,-37.5300,-78.3300,1.3400,-10.8900,1.1800,0.0000,0.0000,-0.0000,1811.0000,1110.0000,1500.0000,1998.0000
232753.7030,2.0000,1997.0000,1000.0000,1521.0000,88.0000,-134.0000,-59.0000,1421.0000,-179.0000,2024.0000,-0.7785,0.3392,0.2124,-0.4836,139.0600,-37.7600,-78.3900,1.3800,-11.1600,1.4300,0.0000,0.0000,-0.0000,1797.0000,1184.0000,1500.0000,1998.0000
232770.4420,2.0000,1997.0000,1000.0000,1520.0000,99.0000,-147.0000,-64.0000,1533.0000,-468.0000,3163.0000,-0.7827,0.3165,0.2249,-0.4864,139.1100,-38.0300,-78.4300,1.4800,-11.5000,1.5900,0.0000,0.0000,-0.0000,1797.0000,1184.0000,1500.0000,1998.0000
232787.3380,2.0000,1997.0000,1000.0000,1520.0000,110.0000,-154.0000,-65.0000,1441.0000,-649.0000,4099.0000,-0.7869,0.2914,0.2378,-0.4892,139.1600,-38.3000,-78.4600,1.5400,-11.8400,1.6400,0.0000,0.0000,-0.0000,1797.0000,1184.0000,1500.0000,1998.0000
232804.0120,2.0000,1997.0000,1000.0000,1520.0000,119.0000,-153.0000,-61.0000,1417.0000,-690.0000,4972.0000,-0.7905,0.2649,0.2499,-0.4924,139.2100,-38.5700,-78.4700,1.5200,-12.1200,1.5800,0.0000,0.0000,-0.0000,1797.0000,1184.0000,1500.0000,1998.0000
232820.8340,2.0000,1997.0000,1000.0000,1520.0000,129.0000,-157.0000,-56.0000,1598.0000,-823.0000,6009.0000,-0.7935,0.2369,0.2613,-0.4959,139.2100,-38.5700,-78.4700,1.5200,-12.1200,1.5800,0.0000,0.0000,-0.0000,1797.0000,1184.0000,1500.0000,1998.0000
232837.7260,2.0000,1997.0000,1000.0000,1520.0000,135.0000,-143.0000,-47.0000,1838.0000,-978.0000,6928.0000,-0.7957,0.2083,0.2709,-0.5001,139.2600,-38.8300,-78.4800,1.4300,-12.3600,1.4000,0.0000,0.0000,-0.0000,1797.0000,1184.0000,1500.0000,1998.0000
232854.1580,2.0000,1997.0000,1000.0000,1520.0000,136.0000,-137.0000,-43.0000,1907.0000,-887.0000,7202.0000,-0.7972,0.1810,0.2786,-0.5041,139.3000,-39.0800,-78.4700,1.2900,-12.5400,1.1100,0.0000,0.0000,-0.0000,1797.0000,1184.0000,1500.0000,1998.0000
232870.9740,2.0000,1996.0000,2000.0000,1560.0000,130.0000,-112.0000,-38.0000,2115.0000,-862.0000,7538.0000,-0.7984,0.1545,0.2842,-0.5079,139.3400,-39.3700,-78.4700,1.1800,-12.7400,0.7400,0.0000,0.0000,-0.0000,1198.0000,1744.0000,1500.0000,1997.0000
232887.8130,2.0000,1996.0000,2000.0000,1560.0000,127.0000,-91.0000,-34.0000,1895.0000,-994.0000,7899.0000,-0.7996,0.1302,0.2872,-0.5110,139.3900,-39.6600,-78.4700,1.0800,-12.9000,0.3100,0.0000,0.0000,-0.0000,1198.0000,1744.0000,1500.0000,1997.0000
232904.5150,2.0000,1996.0000,2000.0000,1560.0000,120.0000,-64.0000,-25.0000,1503.0000,-984.0000,7469.0000,-0.8009,0.1087,0.2876,-0.5138,139.4300,-39.9400,-78.4700,1.0000,-12.9500,-0.1500,0.0000,0.0000,-0.0000,1198.0000,1744.0000,1500.0000,1997.0000
232921.5000,2.0000,1996.0000,2000.0000,1560.0000,116.0000,-46.0000,-17.0000,1601.0000,-1052.0000,7168.0000,-0.8021,0.0896,0.2853,-0.5169,139.4300,-39.9400,-78.4700,1.0000,-12.9500,-0.1500,0.0000,0.0000,-0.0000,1198.0000,1744.0000,1500.0000,1997.0000
232938.2360,2.0000,1996.0000,2000.0000,1560.0000,91.0000,-17.0000,-7.0000,1896.0000,-1042.0000,7078.0000,-0.8030,0.0747,0.2811,-0.5202,139.4700,-40.2000,-78.4700,0.9800,-12.9500,-0.5700,0.0000,0.0000,-0.0000,1198.0000,1744.0000,1500.0000,1997.0000
232954.8720,2.0000,1996.0000,2000.0000,1560.0000,56.0000,28.0000,4.0000,1875.0000,-1000.0000,6961.0000,-0.8042,0.0666,0.2747,-0.5228,139.5100,-40.4400,-78.4800,1.0200,-12.9400,-1.0100,0.0000,0.0000,-0.0000,1198.0000,1744.0000,1500.0000,1997.0000
232971.5340,2.0000,1988.0000,2000.0000,1727.0000,13.0000,63.0000,15.0000,1833.0000,-1082.0000,6412.0000,-0.8056,0.0667,0.2667,-0.5248,139.5700,-40.7400,-78.5000,1.0300,-13.0200,-1.4400,0.0000,0.0000,-0.0000,1078.0000,1697.0000,1500.0000,1990.0000
232988.2820,2.0000,1988.0000,2000.0000,1727.0000,-38.0000,93.0000,24.0000,1436.0000,-1127.0000,5548.0000,-0.8071,0.0750,0.2579,-0.5258,139.6200,-41.0300,-78.5200,1.0700,-13.1000,-1.8300,0.0000,0.0000,-0.0000,1078.0000,1697.0000,1500.0000,1990.0000
233005.0050,2.0000,1988.0000,2000.0000,1727.0000,-99.0000,117.0000,36.0000,1509.0000,-763.0000,3804.0000,-0.8078,0.0925,0.2503,-0.5256,139.6700,-41.3100,-78.5400,1.1500,-13.1600,-2.0900,0.0000,0.0000,-0.0000,1078.0000,1697.0000,1500.0000,1990.0000
233022.0480,2.0000,1988.0000,2000.0000,1727.0000,-157.0000,126.0000,45.0000,1446.0000,-456.0000,2282.0000,-0.8069,0.1194,0.2454,-0.5238,139.6700,-41.3100,-78.5400,1.1500,-13.1600,-2.0900,0.0000,0.0000,-0.0000,1078.0000,1697.0000,1500.0000,1990.0000
233038.7710,2.0000,1988.0000,2000.0000,1727.0000,-218.0000,144.0000,53.0000,1138.0000,-396.0000,1204.0000,-0.8043,0.1539,0.2428,-0.5201,139.7100,-41.5700,-78.5700,1.2700,-13.2600,-2.1800,0.0000,0.0000,-0.0000,1078.0000,1697.0000,1500.0000,1990.0000
233055.6520,2.0000,1997.0000,1000.0000,1724.0000,-266.0000,149.0000,59.0000,1250.0000,-231.0000,155.0000,-0.7988,0.1956,0.2427,-0.5145,139.7600,-41.8100,-78.6000,1.4200,-13.3300,-2.1500,0.0000,0.0000,-0.0000,1680.0000,1098.0000,1500.0000,1998.0000
233072.7950,2.0000,1997.0000,1000.0000,1724.0000,-302.0000,164.0000,63.0000,1434.0000,-130.0000,-777.0000,-0.7902,0.2438,0.2439,-0.5065,139.8100,-42.1100,-78.6300,1.3800,-13.3300,-2.0500,0.0000,0.0000,-0.0000,1680.0000,1098.0000,1500.0000,1998.0000
233089.4740,2.0000,1997.0000,1000.0000,1724.0000,-317.0000,167.0000,64.0000,1256.0000,-147.0000,-2010.0000,-0.7790,0.2935,0.2455,-0.4967,139.8600,-42.4000,-78.6600,1.4000,-13.3000,-1.8800,0.0000,0.0000,-0.0000,1680.0000,1098.0000,1500.0000,1998.0000
233106.0810,2.0000,1997.0000,1000.0000,1724.0000,-307.0000,149.0000,63.0000,1328.0000,96.0000,-3598.0000,-0.7655,0.3421,0.2472,-0.4856,139.9000,-42.6600,-78.7000,1.5100,-13.2000,-1.7000,0.0000,0.0000,-0.0000,1680.0000,1098.0000,1500.0000,1998.0000
233123.0960,2.0000,1997.0000,1000.0000,1724.0000,-275.0000,114.0000,57.0000,1391.0000,107.0000,-4553.0000,-0.7501,0.3864,0.2501,-0.4749,139.9000,-42.6600,-78.7000,1.5100,-13.2000,-1.7000,0.0000,0.0000,-0.0000,1680.0000,1098.0000,1500.0000,1998.0000
233139.4800,2.0000,1997.0000,1000.0000,1724.0000,-236.0000,67.0000,45.0000,1298.0000,225.0000,-5008.0000,-0.7350,0.4214,0.2547,-0.4662,139.9500,-42.9100,-78.7500,1.7100,-13.0400,-1.5000,0.0000,0.0000,-0.0000,1680.0000,1098.0000,1500.0000,1998.0000
233156.3420,2.0000,1997.0000,1000.0000,1692.0000,-186.0000,8.0000,29.0000,1108.0000,401.0000,-4866.0000,-0.7201,0.4478,0.2629,-0.4602,139.9900,-43.1300,-78.8100,1.9600,-12.8500,-1.3200,0.0000,0.0000,-0.0000,1711.0000,1113.0000,1500.0000,1998.0000
233173.1260,2.0000,1997.0000,1000.0000,1678.0000,-133.0000,-47.0000,7.0000,1154.0000,424.0000,-3981.0000,-0.7072,0.4634,0.2748,-0.4578,140.0400,-43.4200,-78.8800,2.1200,-12.7300,-1.0400,0.0000,0.0000,-0.0000,1711.0000,1113.0000,1500.0000,1998.0000
233190.1090,2.0000,1997.0000,1000.0000,1678.0000,-80.0000,-91.0000,-16.0000,978.0000,510.0000,-2841.0000,-0.6970,0.4692,0.2899,-0.4583,140.0900,-43.6800,-78.9500,2.2000,-12.6600,-0.7600,0.0000,0.0000,-0.0000,1711.0000,1113.0000,1500.0000,1998.0000
233207.1300,2.0000,1997.0000,1000.0000,1678.0000,-41.0000,-136.0000,-38.0000,1071.0000,177.0000,-736.0000,-0.6895,0.4664,0.3077,-0.4610,140.1300,-43.9300,-79.0100,2.1300,-12.6400,-0.5000,0.0000,0.0000,-0.0000,1711.0000,1113.0000,1500.0000,1998.0000
233224.3150,2.0000,1997.0000,1000.0000,1678.0000,-16.0000,-159.0000,-55.0000,1031.0000,13.0000,1309.0000,-0.6835,0.4562,0.3287,-0.4656,140.1300,-43.9300,-79.0100,2.1300,-12.6400,-0.5000,0.0000,0.0000,-0.0000,1711.0000,1113.0000,1500.0000,1998.0000
233241.2650,2.0000,1997.0000,1000.0000,1678.0000,-2.0000,-178.0000,-66.0000,1337.0000,-106.0000,3132.0000,-0.6786,0.4423,0.3502,-0.4703,140.1700,-44.1700,-79.0600,1.8700,-12.6900,-0.3000,0.0000,0.0000,-0.0000,1711.0000,1113.0000,1500.0000,1998.0000
233257.9690,2.0000,1997.0000,1554.0000,1000.0000,13.0000,-193.0000,-73.0000,1308.0000,-410.0000,4591.0000,-0.6740,0.4252,0.3726,-0.4756,140.2000,-44.4000,-79.1000,1.4600,-12.8000,-0.1600,0.0000,0.0000,-0.0000,1732.0000,1792.0000,1500.0000,1999.0000
233274.9110,2.0000,1998.0000,1561.0000,1000.0000,25.0000,-195.0000,-74.0000,1537.0000,-562.0000,5741.0000,-0.6694,0.4056,0.3950,-0.4810,140.2300,-44.6900,-79.1400,1.1700,-13.1000,-0.0900,0.0000,0.0000,-0.0000,1732.0000,1792.0000,1500.0000,1999.0000
233291.3840,2.0000,1998.0000,1561.0000,1000.0000,40.0000,-194.0000,-71.0000,1767.0000,-893.0000,7302.0000,-0.6650,0.3848,0.4156,-0.4868,140.2600,-44.9700,-79.1600,0.7900,-13.3600,-0.1000,0.0000,0.0000,-0.0000,1732.0000,1792.0000,1500.0000,1999.0000
233308.1350,2.0000,1998.0000,1561.0000,1000.0000,58.0000,-173.0000,-63.0000,2056.0000,-1102.0000,8747.0000,-0.6613,0.3631,0.4335,-0.4929,140.2700,-45.2400,-79.1800,0.3000,-13.5900,-0.2000,0.0000,0.0000,-0.0000,1732.0000,1792.0000,1500.0000,1999.0000
233325.4200,2.0000,1998.0000,1561.0000,1000.0000,93.0000,-123.0000,-51.0000,2156.0000,-1389.0000,10132.0000,-0.6599,0.3409,0.4456,-0.4998,140.2700,-45.2400,-79.1800,0.3000,-13.5900,-0.2000,0.0000,0.0000,-0.0000,1732.0000,1792.0000,1500.0000,1999.0000
233342.4500,2.0000,1998.0000,1561.0000,1000.0000,143.0000,-51.0000,-35.0000,1976.0000,-1648.0000,11056.0000,-0.6631,0.3199,0.4476,-0.5075,140.2800,-45.5000,-79.1900,-0.2600,-13.7500,-0.4000,0.0000,0.0000,-0.0000,1732.0000,1792.0000,1500.0000,1999.0000
233359.1700,2.0000,1998.0000,1562.0000,1000.0000,193.0000,30.0000,-13.0000,1750.0000,-1775.0000,10740.0000,-0.6722,0.3018,0.4369,-0.5159,140.2700,-45.7500,-79.2100,-0.8400,-13.8000,-0.7300,0.0000,0.0000,-0.0000,1799.0000,1861.0000,1500.0000,1999.0000
233376.2810,2.0000,1998.0000,1562.0000,1000.0000,237.0000,98.0000,9.0000,1546.0000,-1508.0000,8509.0000,-0.6864,0.2854,0.4130,-0.5261,140.2700,-46.0700,-79.2200,-1.2400,-13.9400,-1.1200,0.0000,0.0000,-0.0000,1799.0000,1861.0000,1500.0000,1999.0000
233393.3300,2.0000,1998.0000,1562.0000,1000.0000,283.0000,168.0000,30.0000,1390.0000,-1093.0000,5603.0000,-0.7037,0.2701,0.3773,-0.5380,140.2600,-46.3700,-79.2400,-1.3300,-14.0400,-1.4300,0.0000,0.0000,-0.0000,1799.0000,1861.0000,1500.0000,1999.0000
233409.9550,2.0000,1998.0000,1562.0000,1000.0000,306.0000,214.0000,47.0000,1884.0000,-786.0000,3335.0000,-0.7219,0.2566,0.3326,-0.5499,140.2500,-46.6500,-79.2700,-1.1100,-14.1700,-1.5900,0.0000,0.0000,-0.0000,1799.0000,1861.0000,1500.0000,1999.0000
233426.9930,2.0000,1998.0000,1562.0000,1000.0000,320.0000,260.0000,63.0000,1590.0000,-731.0000,641.0000,-0.7398,0.2445,0.2787,-0.5614,140.2500,-46.6500,-79.2700,-1.1100,-14.1700,-1.5900,0.0000,0.0000,-0.0000,1799.0000,1861.0000,1500.0000,1999.0000
233444.1170,2.0000,1998.0000,1562.0000,1000.0000,320.0000,288.0000,78.0000,1585.0000,-592.0000,-1848.0000,-0.7556,0.2345,0.2183,-0.5714,140.2500,-46.9200,-79.2900,-0.6800,-14.2800,-1.6300,0.0000,0.0000,-0.0000,1799.0000,1861.0000,1500.0000,1999.0000
233460.8820,2.0000,1997.0000,1057.0000,1835.0000,303.0000,307.0000,90.0000,1388.0000,-444.0000,-4540.0000,-0.7670,0.2270,0.1559,-0.5795,140.2600,-47.1700,-79.3300,-0.1400,-14.3400,-1.4900,0.0000,0.0000,-0.0000,1556.0000,1110.0000,1500.0000,1998.0000
233477.8180,2.0000,1997.0000,1056.0000,1836.0000,283.0000,292.0000,100.0000,1394.0000,-272.0000,-7039.0000,-0.7737,0.2215,0.0935,-0.5861,140.2800,-47.4900,-79.3600,0.0800,-14.4300,-1.0900,0.0000,0.0000,-0.0000,1556.0000,1110.0000,1500.0000,1998.0000
233494.6080,2.0000,1997.0000,1056.0000,1836.0000,270.0000,248.0000,102.0000,1508.0000,-58.0000,-9114.0000,-0.7759,0.2146,0.0355,-0.5921,140.3000,-47.7900,-79.4200,0.3100,-14.4100,-0.6900,0.0000,0.0000,-0.0000,1556.0000,1110.0000,1500.0000,1998.0000
233511.5000,2.0000,1997.0000,1056.0000,1836.0000,265.0000,164.0000,93.0000,1608.0000,226.0000,-10339.0000,-0.7753,0.2027,-0.0148,-0.5981,140.3200,-48.0700,-79.4900,0.4800,-14.2800,-0.0200,0.0000,0.0000,-0.0000,1556.0000,1110.0000,1500.0000,1998.0000
233528.1760,2.0000,1997.0000,1056.0000,1836.0000,253.0000,58.0000,79.0000,1309.0000,494.0000,-10582.0000,-0.7742,0.1822,-0.0518,-0.6040,140.3200,-48.0700,-79.4900,0.4800,-14.2800,-0.0200,0.0000,0.0000,-0.0000,1556.0000,1110.0000,1500.0000,1998.0000
233545.1260,2.0000,1997.0000,1056.0000,1836.0000,230.0000,-49.0000,62.0000,1152.0000,498.0000,-9317.0000,-0.7738,0.1540,-0.0750,-0.6098,140.3400,-48.3300,-79.5600,0.5000,-14.0900,0.7700,0.0000,0.0000,-0.0000,1556.0000,1110.0000,1500.0000,1998.0000
233561.9470,2.0000,1997.0000,1014.0000,1852.0000,195.0000,-130.0000,50.0000,1247.0000,243.0000,-6671.0000,-0.7741,0.1207,-0.0846,-0.6157,140.3600,-48.5800,-79.6300,0.4300,-13.9300,1.6400,0.0000,0.0000,-0.0000,1569.0000,1081.0000,1500.0000,1998.0000
233578.9120,2.0000,1997.0000,1014.0000,1852.0000,160.0000,-202.0000,43.0000,1425.0000,44.0000,-3540.0000,-0.7745,0.0843,-0.0818,-0.6215,140.3600,-48.8900,-79.6800,0.1800,-14.0100,2.3200,0.0000,0.0000,-0.0000,1569.0000,1081.0000,1500.0000,1998.0000
233595.6710,2.0000,1997.0000,1014.0000,1852.0000,133.0000,-241.0000,36.0000,1304.0000,-146.0000,-672.0000,-0.7748,0.0467,-0.0702,-0.6265,140.3600,-49.1900,-79.7300,-0.0300,-14.1900,2.7600,0.0000,0.0000,-0.0000,1569.0000,1081.0000,1500.0000,1998.0000
233612.4230,2.0000,1997.0000,1014.0000,1852.0000,106.0000,-272.0000,29.0000,1142.0000,-66.0000,1878.0000,-0.7748,0.0089,-0.0519,-0.6300,140.3500,-49.4700,-79.7600,-0.2200,-14.3700,3.0100,0.0000,0.0000,-0.0000,1569.0000,1081.0000,1500.0000,1998.0000
233629.7790,2.0000,1997.0000,1014.0000,1852.0000,76.0000,-283.0000,26.0000,1107.0000,-152.0000,4608.0000,-0.7737,-0.0285,-0.0278,-0.6323,140.3500,-49.4700,-79.7600,-0.2200,-14.3700,3.0100,0.0000,0.0000,-0.0000,1569.0000,1081.0000,1500.0000,1998.0000
233646.2530,2.0000,1997.0000,1014.0000,1852.0000,53.0000,-288.0000,23.0000,1774.0000,-192.0000,7382.0000,-0.7715,-0.0620,-0.0016,-0.6331,140.3500,-49.7500,-79.7700,-0.3600,-14.5100,3.0000,0.0000,0.0000,-0.0000,1569.0000,1081.0000,1500.0000,1998.0000
233662.9740,2.0000,1997.0000,1012.0000,1850.0000,30.0000,-268.0000,19.0000,2075.0000,-461.0000,9813.0000,-0.7685,-0.0924,0.0263,-0.6326,140.3400,-50.0000,-79.7700,-0.4600,-14.6100,2.7200,0.0000,0.0000,-0.0000,1572.0000,1081.0000,1500.0000,1998.0000
233679.7630,2.0000,1997.0000,1011.0000,1849.0000,6.0000,-242.0000,11.0000,2247.0000,-502.0000,11376.0000,-0.7654,-0.1178,0.0536,-0.6304,140.3000,-50.3400,-79.7600,-0.6600,-14.6400,2.1000,0.0000,0.0000,-0.0000,1572.0000,1081.0000,1500.0000,1998.0000
233696.5000,2.0000,1997.0000,1011.0000,1849.0000,-6.0000,-196.0000,8.0000,2239.0000,-489.0000,11919.0000,-0.7626,-0.1376,0.0787,-0.6272,140.2700,-50.6400,-79.7500,-0.8200,-14.5400,1.2900,0.0000,0.0000,-0.0000,1572.0000,1081.0000,1500.0000,1998.0000
233713.5210,2.0000,1997.0000,1011.0000,1849.0000,-2.0000,-148.0000,4.0000,2133.0000,-396.0000,11372.0000,-0.7599,-0.1527,0.0987,-0.6241,140.2700,-50.6400,-79.7500,-0.8200,-14.5400,1.2900,0.0000,0.0000,-0.0000,1572.0000,1081.0000,1500.0000,1998.0000
233730.5390,2.0000,1997.0000,1011.0000,1849.0000,0.0000,-110.0000,-2.0000,1903.0000,-273.0000,10512.0000,-0.7578,-0.1644,0.1128,-0.6214,140.2300,-50.9300,-79.7500,-0.9900,-14.3600,0.4500,0.0000,0.0000,-0.0000,1572.0000,1081.0000,1500.0000,1998.0000
233747.3810,2.0000,1997.0000,1011.0000,1849.0000,-5.0000,-76.0000,-4.0000,1575.0000,-318.0000,9567.0000,-0.7563,-0.1725,0.1234,-0.6189,140.2000,-51.1900,-79.7600,-1.1500,-14.1400,-0.3100,0.0000,0.0000,-0.0000,1572.0000,1081.0000,1500.0000,1998.0000
233764.2240,2.0000,1997.0000,1000.0000,1795.0000,-14.0000,-39.0000,0.0000,1510.0000,-168.0000,8215.0000,-0.7557,-0.1765,0.1302,-0.6171,140.1600,-51.4400,-79.7800,-1.2600,-13.9200,-0.9700,0.0000,0.0000,-0.0000,1623.0000,1085.0000,1500.0000,1998.0000
233781.0300,2.0000,1997.0000,1000.0000,1794.0000,-19.0000,-15.0000,2.0000,1562.0000,-191.0000,7649.0000,-0.7554,-0.1772,0.1349,-0.6163,140.1200,-51.7500,-79.8100,-1.2000,-13.7900,-1.5300,0.0000,0.0000,-0.0000,1623.0000,1085.0000,1500.0000,1998.0000
233797.8840,2.0000,1997.0000,1000.0000,1794.0000,-20.0000,13.0000,1.0000,1628.0000,-235.0000,7396.0000,-0.7558,-0.1750,0.1368,-0.6160,140.0900,-52.0400,-79.8400,-1.1500,-13.6700,-2.0300,0.0000,0.0000,-0.0000,1623.0000,1085.0000,1500.0000,1998.0000
233814.4890,2.0000,1997.0000,1000.0000,1794.0000,-23.0000,27.0000,0.0000,1480.0000,-372.0000,6426.0000,-0.7567,-0.1707,0.1364,-0.6162,140.0900,-52.0400,-79.8400,-1.1500,-13.6700,-2.0300,0.0000,0.0000,-0.0000,1623.0000,1085.0000,1500.0000,1998.0000
233831.4330,2.0000,1997.0000,1000.0000,1794.0000,-10.0000,51.0000,2.0000,1216.0000,-335.0000,5346.0000,-0.7577,-0.1652,0.1335,-0.6170,140.0500,-52.3100,-79.8900,-1.1000,-13.5800,-2.4800,0.0000,0.0000,-0.0000,1623.0000,1085.0000,1500.0000,1998.0000
233848.1140,2.0000,1997.0000,1000.0000,1794.0000,-2.0000,62.0000,0.0000,1058.0000,-85.0000,4195.0000,-0.7588,-0.1586,0.1284,-0.6185,140.0300,-52.5600,-79.9400,-1.0400,-13.5200,-2.8100,0.0000,0.0000,-0.0000,1623.0000,1085.0000,1500.0000,1998.0000
233864.8030,2.0000,1997.0000,1000.0000,1702.0000,11.0000,61.0000,-6.0000,1189.0000,94.0000,3636.0000,-0.7599,-0.1523,0.1217,-0.6201,140.0000,-52.8200,-79.9900,-1.0100,-13.5100,-3.0100,0.0000,0.0000,-0.0000,1696.0000,1105.0000,1500.0000,1998.0000
233881.6000,2.0000,1997.0000,1000.0000,1701.0000,23.0000,51.0000,-14.0000,1356.0000,155.0000,2999.0000,-0.7612,-0.1481,0.1145,-0.6209,139.9700,-53.1200,-80.0500,-0.9400,-13.5800,-3.1700,0.0000,0.0000,-0.0000,1696.0000,1105.0000,1500.0000,1998.0000
233898.3620,2.0000,1997.0000,1000.0000,1701.0000,35.0000,39.0000,-25.0000,1214.0000,315.0000,1847.0000,-0.7629,-0.1469,0.1074,-0.6203,139.9500,-53.4100,-80.1100,-0.8700,-13.6800,-3.2300,0.0000,0.0000,-0.0000,1696.0000,1105.0000,1500.0000,1998.0000
233914.8560,2.0000,1997.0000,1000.0000,1701.0000,36.0000,5.0000,-33.0000,1217.0000,52.0000,1550.0000,-0.7650,-0.1490,0.1016,-0.6182,139.9500,-53.4100,-80.1100,-0.8700,-13.6800,-3.2300,0.0000,0.0000,-0.0000,1696.0000,1105.0000,1500.0000,1998.0000
233931.6010,2.0000,1997.0000,1000.0000,1701.0000,37.0000,-25.0000,-43.0000,1171.0000,-103.0000,1448.0000,-0.7675,-0.1544,0.0989,-0.6143,139.9300,-53.6800,-80.1700,-0.8100,-13.7800,-3.2100,0.0000,0.0000,-0.0000,1696.0000,1105.0000,1500.0000,1998.0000
233948.0470,2.0000,1997.0000,1000.0000,1698.0000,36.0000,-59.0000,-52.0000,1054.0000,-75.0000,1532.0000,-0.7702,-0.1630,0.0994,-0.6085,139.9100,-53.9400,-80.2200,-0.7300,-13.8600,-3.1600,0.0000,0.0000,-0.0000,1698.0000,1107.0000,1500.0000,1998.0000
233964.6190,2.0000,1997.0000,1000.0000,1697.0000,34.0000,-77.0000,-58.0000,1051.0000,-24.0000,1956.0000,-0.7732,-0.1738,0.1029,-0.6011,139.9000,-54.2100,-80.2800,-0.6300,-13.9000,-3.1100,0.0000,0.0000,-0.0000,1698.0000,1107.0000,1500.0000,1998.0000
233981.4140,2.0000,1997.0000,1000.0000,1697.0000,36.0000,-107.0000,-64.0000,1219.0000,-391.0000,3135.0000,-0.7762,-0.1865,0.1093,-0.5923,139.8900,-54.5200,-80.3300,-0.4900,-13.9000,-3.0900,0.0000,0.0000,-0.0000,1698.0000,1107.0000,1500.0000,1998.0000
233998.1190,2.0000,1997.0000,1000.0000,1697.0000,40.0000,-125.0000,-67.0000,1522.0000,-490.0000,4147.0000,-0.7788,-0.2016,0.1173,-0.5822,139.8900,-54.5200,-80.3300,-0.4900,-13.9000,-3.0900,0.0000,0.0000,-0.0000,1698.0000,1107.0000,1500.0000,1998.0000
234014.8920,2.0000,1997.0000,1000.0000,1697.0000,44.0000,-140.0000,-70.0000,1500.0000,-547.0000,4872.0000,-0.7810,-0.2188,0.1269,-0.5710,139.8800,-54.8100,-80.3800,-0.3200,-13.8400,-3.1900,0.0000,0.0000,-0.0000,1698.0000,1107.0000,1500.0000,1998.0000
234031.4200,2.0000,1997.0000,1000.0000,1697.0000,45.0000,-147.0000,-70.0000,1626.0000,-501.0000,5542.0000,-0.7825,-0.2367,0.1370,-0.5593,139.8800,-55.0900,-80.4300,-0.1500,-13.7200,-3.3900,0.0000,0.0000,-0.0000,1698.0000,1107.0000,1500.0000,1998.0000
234048.0140,2.0000,1997.0000,1171.0000,1329.0000,47.0000,-160.0000,-68.0000,1745.0000,-826.0000,6587.0000,-0.7832,-0.2556,0.1482,-0.5471,139.8900,-55.3500,-80.4800,0.0000,-13.5400,-3.6300,0.0000,0.0000,-0.0000,1754.0000,1435.0000,1500.0000,1998.0000
234064.8100,2.0000,1997.0000,1183.0000,1311.0000,50.0000,-158.0000,-65.0000,1960.0000,-767.0000,7191.0000,-0.7829,-0.2753,0.1600,-0.5345,139.8900,-55.6100,-80.5300,0.2000,-13.2900,-3.9600,0.0000,0.0000,-0.0000,1754.0000,1435.0000,1500.0000,1998.0000
234081.5270,2.0000,1997.0000,1183.0000,1311.0000,54.0000,-148.0000,-63.0000,2125.0000,-542.0000,7507.0000,-0.7819,-0.2947,0.1711,-0.5220,139.9100,-55.9000,-80.5900,0.4300,-12.9900,-4.3200,0.0000,0.0000,-0.0000,1754.0000,1435.0000,1500.0000,1998.0000
234098.2310,2.0000,1997.0000,1183.0000,1311.0000,59.0000,-131.0000,-60.0000,2208.0000,-552.0000,7932.0000,-0.7805,-0.3129,0.1799,-0.5104,139.9100,-55.9000,-80.5900,0.4300,-12.9900,-4.3200,0.0000,0.0000,-0.0000,1754.0000,1435.0000,1500.0000,1998.0000
234115.2630,2.0000,1997.0000,1183.0000,1311.0000,79.0000,-89.0000,-54.0000,2059.0000,-894.0000,8656.0000,-0.7786,-0.3306,0.1852,-0.5002,139.9300,-56.1700,-80.6500,0.6300,-12.6600,-4.7300,0.0000,0.0000,-0.0000,1754.0000,1435.0000,1500.0000,1998.0000
234132.0630,2.0000,1997.0000,1183.0000,1311.0000,109.0000,-45.0000,-50.0000,2030.0000,-860.0000,8476.0000,-0.7758,-0.3476,0.1831,-0.4938,139.9500,-56.4200,-80.7100,0.8500,-12.2600,-5.1600,0.0000,0.0000,-0.0000,1754.0000,1435.0000,1500.0000,1998.0000
234148.7900,2.0000,1997.0000,1183.0000,1311.0000,141.0000,-10.0000,-47.0000,1553.0000,-953.0000,7909.0000,-0.7718,-0.3650,0.1745,-0.4905,139.9800,-56.6400,-80.7800,1.0500,-11.8600,-5.5700,0.0000,0.0000,-0.0000,1754.0000,1435.0000,1500.0000,1998.0000
234165.5700,2.0000,1994.0000,2000.0000,1247.0000,163.0000,39.0000,-42.0000,1601.0000,-978.0000,7091.0000,-0.7669,-0.3824,0.1591,-0.4902,140.0100,-56.8700,-80.8600,1.2700,-11.4800,-5.9000,0.0000,0.0000,-0.0000,1300.0000,1953.0000,1500.0000,1995.0000
234182.2980,2.0000,1994.0000,2000.0000,1247.0000,178.0000,62.0000,-38.0000,1709.0000,-660.0000,5711.0000,-0.7610,-0.3987,0.1387,-0.4927,140.0500,-57.1200,-80.9500,1.5400,-11.2000,-6.1500,0.0000,0.0000,-0.0000,1300.0000,1953.0000,1500.0000,1995.0000
234199.2730,2.0000,1994.0000,2000.0000,1247.0000,190.0000,88.0000,-33.0000,1539.0000,-478.0000,4320.0000,-0.7538,-0.4147,0.1148,-0.4966,140.0500,-57.1200,-80.9500,1.5400,-11.2000,-6.1500,0.0000,0.0000,-0.0000,1300.0000,1953.0000,1500.0000,1995.0000
234215.7770,2.0000,1994.0000,2000.0000,1247.0000,190.0000,114.0000,-26.0000,1353.0000,-607.0000,3445.0000,-0.7458,-0.4283,0.0884,-0.5025,140.0900,-57.3600,-81.0400,1.7500,-11.0600,-6.2900,0.0000,0.0000,-0.0000,1300.0000,1953.0000,1500.0000,1995.0000
234232.5630,2.0000,1994.0000,2000.0000,1247.0000,179.0000,147.0000,-19.0000,1386.0000,-724.0000,2611.0000,-0.7371,-0.4389,0.0589,-0.5105,140.1400,-57.5800,-81.1300,1.9300,-11.0100,-6.3200,0.0000,0.0000,-0.0000,1300.0000,1953.0000,1500.0000,1995.0000
234249.2950,2.0000,1994.0000,2000.0000,1247.0000,154.0000,180.0000,-10.0000,1333.0000,-1013.0000,2042.0000,-0.7283,-0.4447,0.0279,-0.5206,140.1900,-57.7900,-81.2200,2.0900,-11.0200,-6.2800,0.0000,0.0000,-0.0000,1300.0000,1953.0000,1500.0000,1995.0000
234266.3780,2.0000,1974.0000,1981.0000,1925.0000,99.0000,226.0000,-1.0000,1533.0000,-585.0000,452.0000,-0.7208,-0.4425,-0.0041,-0.5336,140.2400,-58.0100,-81.3100,2.2600,-11.0300,-6.2000,0.0000,0.0000,-0.0000,1047.0000,1530.0000,1500.0000,1976.0000
234283.1270,2.0000,1974.0000,1981.0000,1925.0000,40.0000,269.0000,4.0000,1766.0000,-301.0000,-1555.0000,-0.7157,-0.4299,-0.0355,-0.5493,140.3000,-58.2500,-81.4100,2.3500,-11.0600,-6.0800,0.0000,0.0000,-0.0000,1047.0000,1530.0000,1500.0000,1976.0000
234300.0470,2.0000,1974.0000,1981.0000,1925.0000,-29.0000,290.0000,10.0000,1879.0000,-131.0000,-4334.0000,-0.7129,-0.4074,-0.0649,-0.5671,140.3000,-58.2500,-81.4100,2.3500,-11.0600,-6.0800,0.0000,0.0000,-0.0000,1047.0000,1530.0000,1500.0000,1976.0000
234316.8990,2.0000,1974.0000,1981.0000,1925.0000,-101.0000,249.0000,12.0000,1806.0000,0.0000,-7314.0000,-0.7128,-0.3776,-0.0870,-0.5846,140.3700,-58.4900,-81.5100,2.2700,-11.2300,-5.9000,0.0000,0.0000,-0.0000,1047.0000,1530.0000,1500.0000,1976.0000
234333.7450,2.0000,1974.0000,1981.0000,1925.0000,-172.0000,192.0000,14.0000,1541.0000,167.0000,-9009.0000,-0.7162,-0.3442,-0.0972,-0.5993,140.4200,-58.7100,-81.6300,1.9800,-11.4800,-5.6500,0.0000,0.0000,-0.0000,1047.0000,1530.0000,1500.0000,1976.0000
234350.5430,2.0000,1974.0000,1981.0000,1925.0000,-243.0000,126.0000,16.0000,1433.0000,370.0000,-8791.0000,-0.7231,-0.3084,-0.0943,-0.6109,140.4700,-58.9200,-81.7700,1.6000,-11.7000,-5.2200,0.0000,0.0000,-0.0000,1047.0000,1530.0000,1500.0000,1976.0000
234367.3020,2.0000,1997.0000,1011.0000,1849.0000,-294.0000,63.0000,14.0000,1234.0000,164.0000,-7329.0000,-0.7324,-0.2719,-0.0787,-0.6192,140.5100,-59.1600,-81.9100,1.3400,-11.8500,-4.5900,0.0000,0.0000,-0.0000,1572.0000,1081.0000,1500.0000,1998.0000
234384.5000,2.0000,1997.0000,1011.0000,1849.0000,-336.0000,14.0000,9.0000,1231.0000,238.0000,-5639.0000,-0.7434,-0.2338,-0.0522,-0.6244,140.5600,-59.4100,-82.0400,1.3000,-11.9000,-4.0100,0.0000,0.0000,-0.0000,1572.0000,1081.0000,1500.0000,1998.0000
234401.3030,2.0000,1997.0000,1011.0000,1849.0000,-351.0000,-16.0000,0.0000,1451.0000,414.0000,-3928.0000,-0.7543,-0.1958,-0.0200,-0.6263,140.5600,-59.4100,-82.0400,1.3000,-11.9000,-4.0100,0.0000,0.0000,-0.0000,1572.0000,1081.0000,1500.0000,1998.0000
234418.3350,2.0000,1997.0000,1011.0000,1849.0000,-345.0000,-44.0000,-11.0000,1332.0000,320.0000,-2716.0000,-0.7644,-0.1592,0.0159,-0.6246,140.6100,-59.6400,-82.1600,1.3500,-11.9000,-3.5600,0.0000,0.0000,-0.0000,1572.0000,1081.0000,1500.0000,1998.0000
234435.0160,2.0000,1997.0000,1011.0000,1849.0000,-327.0000,-68.0000,-26.0000,1019.0000,91.0000,-1440.0000,-0.7731,-0.1268,0.0524,-0.6192,140.6500,-59.8700,-82.2800,1.4800,-11.8500,-3.2200,0.0000,0.0000,-0.0000,1572.0000,1081.0000,1500.0000,1998.0000
234451.6260,2.0000,1997.0000,1011.0000,1849.0000,-299.0000,-92.0000,-42.0000,904.0000,248.0000,-165.0000,-0.7808,-0.0989,0.0890,-0.6104,140.7000,-60.0900,-82.3900,1.6400,-11.7300,-2.9800,0.0000,0.0000,-0.0000,1572.0000,1081.0000,1500.0000,1998.0000
234468.2820,2.0000,1997.0000,1000.0000,1836.0000,-257.0000,-112.0000,-61.0000,1117.0000,542.0000,882.0000,-0.7876,-0.0770,0.1245,-0.5985,140.7500,-60.3100,-82.5000,1.8000,-11.6500,-2.8100,0.0000,0.0000,-0.0000,1585.0000,1082.0000,1500.0000,1998.0000
234485.0290,2.0000,1997.0000,1000.0000,1835.0000,-202.0000,-141.0000,-82.0000,1114.0000,543.0000,1985.0000,-0.7938,-0.0629,0.1585,-0.5837,140.7500,-60.3100,-82.5000,1.8000,-11.6500,-2.8100,0.0000,0.0000,-0.0000,1585.0000,1082.0000,1500.0000,1998.0000
234502.2260,2.0000,1997.0000,1000.0000,1835.0000,-151.0000,-150.0000,-102.0000,1438.0000,424.0000,3589.0000,-0.7998,-0.0569,0.1901,-0.5665,140.8200,-60.5500,-82.6000,1.9300,-11.6500,-2.7200,0.0000,0.0000,-0.0000,1585.0000,1082.0000,1500.0000,1998.0000
234519.5010,2.0000,1997.0000,1000.0000,1835.0000,-103.0000,-159.0000,-114.0000,1671.0000,-66.0000,5348.0000,-0.8055,-0.0581,0.2186,-0.5477,140.8800,-60.7800,-82.6900,2.0300,-11.5900,-2.7800,0.0000,0.0000,-0.0000,1585.0000,1082.0000,1500.0000,1998.0000
234536.1740,2.0000,1997.0000,1000.0000,1835.0000,-66.0000,-153.0000,-118.0000,1656.0000,-651.0000,6887.0000,-0.8103,-0.0646,0.2426,-0.5296,140.9400,-61.0000,-82.7800,2.0900,-11.4600,-3.0200,0.0000,0.0000,-0.0000,1585.0000,1082.0000,1500.0000,1998.0000
234552.8530,2.0000,1997.0000,1000.0000,1835.0000,-31.0000,-147.0000,-116.0000,1885.0000,-786.0000,7579.0000,-0.8144,-0.0746,0.2626,-0.5121,141.0000,-61.2000,-82.8600,2.1400,-11.2300,-3.3900,0.0000,0.0000,-0.0000,1585.0000,1082.0000,1500.0000,1998.0000
234569.5030,2.0000,1998.0000,1456.0000,1000.0000,-6.0000,-129.0000,-108.0000,1747.0000,-816.0000,7802.0000,-0.8175,-0.0871,0.2788,-0.4964,141.0700,-61.4100,-82.9500,2.1500,-11.0600,-3.8200,0.0000,0.0000,-0.0000,1870.0000,1826.0000,1500.0000,1999.0000
234586.0780,2.0000,1998.0000,1456.0000,1000.0000,-1.0000,-105.0000,-97.0000,1851.0000,-726.0000,7580.0000,-0.8200,-0.0995,0.2916,-0.4824,141.0700,-61.4100,-82.9500,2.1500,-11.0600,-3.8200,0.0000,0.0000,-0.0000,1870.0000,1826.0000,1500.0000,1999.0000
234602.8830,2.0000,1998.0000,1456.0000,1000.0000,18.0000,-81.0000,-83.0000,1886.0000,-882.0000,7523.0000,-0.8222,-0.1107,0.3008,-0.4704,141.1400,-61.6400,-83.0400,2.1300,-10.9500,-4.2600,0.0000,0.0000,-0.0000,1870.0000,1826.0000,1500.0000,1999.0000
234619.8300,2.0000,1998.0000,1456.0000,1000.0000,35.0000,-41.0000,-65.0000,1869.0000,-1241.0000,7881.0000,-0.8241,-0.1215,0.3052,-0.4615,141.2100,-61.8600,-83.1300,2.1300,-10.8400,-4.6900,0.0000,0.0000,-0.0000,1870.0000,1826.0000,1500.0000,1999.0000
234636.8830,2.0000,1998.0000,1456.0000,1000.0000,67.0000,15.0000,-44.0000,1761.0000,-1240.0000,7564.0000,-0.8263,-0.1309,0.3025,-0.4568,141.2800,-62.0600,-83.2200,2.1500,-10.6900,-5.1200,0.0000,0.0000,-0.0000,1870.0000,1826.0000,1500.0000,1999.0000
234653.5000,2.0000,1998.0000,1456.0000,1000.0000,126.0000,57.0000,-27.0000,1955.0000,-1346.0000,7040.0000,-0.8282,-0.1416,0.2912,-0.4574,141.3500,-62.2500,-83.3200,2.2000,-10.5400,-5.5400,0.0000,0.0000,-0.0000,1870.0000,1826.0000,1500.0000,1999.0000
234670.4620,2.0000,1998.0000,1491.0000,1000.0000,179.0000,109.0000,-9.0000,1550.0000,-1154.0000,5845.0000,-0.8294,-0.1558,0.2705,-0.4634,141.4200,-62.4600,-83.4200,2.2600,-10.4400,-5.8900,0.0000,0.0000,-0.0000,1882.0000,1873.0000,1500.0000,1999.0000
234687.4740,2.0000,1998.0000,1491.0000,1000.0000,228.0000,155.0000,6.0000,1630.0000,-1060.0000,4527.0000,-0.8295,-0.1719,0.2397,-0.4743,141.4200,-62.4600,-83.4200,2.2600,-10.4400,-5.8900,0.0000,0.0000,-0.0000,1882.0000,1873.0000,1500.0000,1999.0000
234704.1170,2.0000,1998.0000,1491.0000,1000.0000,261.0000,194.0000,23.0000,1718.0000,-1116.0000,3089.0000,-0.8275,-0.1890,0.2019,-0.4886,141.4900,-62.6900,-83.5200,2.3500,-10.4300,-6.1200,0.0000,0.0000,-0.0000,1882.0000,1873.0000,1500.0000,1999.0000
234720.8350,2.0000,1998.0000,1491.0000,1000.0000,289.0000,225.0000,39.0000,1618.0000,-963.0000,1301.0000,-0.8228,-0.2061,0.1574,-0.5056,141.5700,-62.9100,-83.6200,2.5100,-10.4900,-6.2300,0.0000,0.0000,-0.0000,1882.0000,1873.0000,1500.0000,1999.0000
234737.4710,2.0000,1998.0000,1491.0000,1000.0000,312.0000,250.0000,51.0000,1648.0000,-899.0000,-271.0000,-0.8146,-0.2233,0.1078,-0.5243,141.6500,-63.1100,-83.7300,2.6800,-10.6500,-6.1800,0.0000,0.0000,-0.0000,1882.0000,1873.0000,1500.0000,1999.0000
234754.0900,2.0000,1998.0000,1491.0000,1000.0000,319.0000,267.0000,59.0000,1797.0000,-477.0000,-2097.0000,-0.8029,-0.2396,0.0545,-0.5432,141.7200,-63.3100,-83.8300,2.8300,-10.9000,-5.9900,0.0000,0.0000,-0.0000,1882.0000,1873.0000,1500.0000,1999.0000
234770.8450,2.0000,1996.0000,1240.0000,2000.0000,311.0000,275.0000,66.0000,1480.0000,-236.0000,-4302.0000,-0.7875,-0.2542,-0.0003,-0.5614,141.8100,-63.5400,-83.9300,2.8200,-11.1500,-5.6700,0.0000,0.0000,-0.0000,1334.0000,1075.0000,1500.0000,1997.0000
234787.6910,2.0000,1996.0000,1240.0000,2000.0000,299.0000,251.0000,70.0000,1530.0000,-120.0000,-6240.0000,-0.7692,-0.2671,-0.0536,-0.5780,141.8100,-63.5400,-83.9300,2.8200,-11.1500,-5.6700,0.0000,0.0000,-0.0000,1334.0000,1075.0000,1500.0000,1997.0000
234804.5880,2.0000,1996.0000,1240.0000,2000.0000,289.0000,198.0000,66.0000,1583.0000,125.0000,-8042.0000,-0.7490,-0.2815,-0.1016,-0.5912,141.8900,-63.7900,-84.0400,2.6300,-11.3900,-5.2300,0.0000,0.0000,-0.0000,1334.0000,1075.0000,1500.0000,1997.0000
234821.1110,2.0000,1996.0000,1240.0000,2000.0000,265.0000,120.0000,56.0000,1560.0000,398.0000,-8839.0000,-0.7297,-0.2985,-0.1395,-0.5991,141.9600,-64.0300,-84.1600,2.2900,-11.6300,-4.7600,0.0000,0.0000,-0.0000,1334.0000,1075.0000,1500.0000,1997.0000
234838.1140,2.0000,1996.0000,1240.0000,2000.0000,234.0000,34.0000,44.0000,1522.0000,373.0000,-8291.0000,-0.7125,-0.3197,-0.1673,-0.6017,142.0200,-64.2600,-84.2900,1.8300,-11.8500,-4.2100,0.0000,0.0000,-0.0000,1334.0000,1075.0000,1500.0000,1997.0000
234854.6690,2.0000,1996.0000,1194.0000,2000.0000,197.0000,-51.0000,35.0000,1494.0000,106.0000,-6991.0000,-0.6995,-0.3436,-0.1827,-0.5994,142.0800,-64.5100,-84.4100,1.3800,-12.0700,-3.6400,0.0000,0.0000,-0.0000,1383.0000,1078.0000,1500.0000,1997.0000
234871.4550,2.0000,1996.0000,1194.0000,2000.0000,160.0000,-115.0000,29.0000,1324.0000,134.0000,-5528.0000,-0.6901,-0.3703,-0.1878,-0.5928,142.1300,-64.7800,-84.5300,1.0500,-12.2600,-3.1800,0.0000,0.0000,-0.0000,1383.0000,1078.0000,1500.0000,1997.0000
234888.0840,2.0000,1996.0000,1194.0000,2000.0000,116.0000,-176.0000,26.0000,1379.0000,-242.0000,-3052.0000,-0.6844,-0.3973,-0.1831,-0.5833,142.1300,-64.7800,-84.5300,1.0500,-12.2600,-3.1800,0.0000,0.0000,-0.0000,1383.0000,1078.0000,1500.0000,1997.0000
234905.0540,2.0000,1996.0000,1194.0000,2000.0000,73.0000,-211.0000,23.0000,1367.0000,-369.0000,-960.0000,-0.6822,-0.4241,-0.1695,-0.5710,142.1700,-65.0500,-84.6500,0.9000,-12.3600,-2.8600,0.0000,0.0000,-0.0000,1383.0000,1078.0000,1500.0000,1997.0000
234921.6650,2.0000,1996.0000,1194.0000,2000.0000,38.0000,-228.0000,22.0000,1350.0000,-153.0000,775.0000,-0.6824,-0.4481,-0.1505,-0.5576,142.2100,-65.2900,-84.7700,0.9800,-12.3500,-2.6000,0.0000,0.0000,-0.0000,1383.0000,1078.0000,1500.0000,1997.0000
234938.5070,2.0000,1996.0000,1194.0000,2000.0000,12.0000,-238.0000,16.0000,1458.0000,-49.0000,2823.0000,-0.6842,-0.4698,-0.1274,-0.5431,142.2500,-65.5300,-84.8800,1.2100,-12.2200,-2.4100,0.0000,0.0000,-0.0000,1383.0000,1078.0000,1500.0000,1997.0000
234955.3690,2.0000,1996.0000,1032.0000,1870.0000,-14.0000,-249.0000,10.0000,1745.0000,-205.0000,4881.0000,-0.6875,-0.4893,-0.1013,-0.5269,142.3100,-65.7900,-84.9700,1.5600,-12.0800,-2.2800,0.0000,0.0000,-0.0000,1568.0000,1081.0000,1500.0000,1998.0000
234972.3830,2.0000,1997.0000,1015.0000,1853.0000,-41.0000,-240.0000,4.0000,2094.0000,-159.0000,6562.0000,-0.6922,-0.5055,-0.0737,-0.5099,142.3100,-65.7900,-84.9700,1.5600,-12.0800,-2.2800,0.0000,0.0000,-0.0000,1568.0000,1081.0000,1500.0000,1998.0000
234989.2520,2.0000,1997.0000,1015.0000,1853.0000,-53.0000,-236.0000,-5.0000,2235.0000,-115.0000,7622.0000,-0.6979,-0.5182,-0.0457,-0.4923,142.3700,-66.0500,-85.0500,2.0200,-11.8700,-2.2800,0.0000,0.0000,-0.0000,1568.0000,1081.0000,1500.0000,1998.0000
235006.2970,2.0000,1997.0000,1015.0000,1853.0000,-60.0000,-222.0000,-15.0000,2303.0000,72.0000,8511.0000,-0.7041,-0.5287,-0.0182,-0.4737,142.4300,-66.2800,-85.1100,2.5000,-11.5500,-2.3900,0.0000,0.0000,-0.0000,1568.0000,1081.0000,1500.0000,1998.0000
235023.5210,2.0000,1997.0000,1015.0000,1853.0000,-59.0000,-198.0000,-25.0000,2311.0000,227.0000,9150.0000,-0.7104,-0.5369,0.0064,-0.4550,142.5000,-66.5000,-85.1700,2.9500,-11.1400,-2.5700,0.0000,0.0000,-0.0000,1568.0000,1081.0000,1500.0000,1998.0000
235040.5570,2.0000,1997.0000,1015.0000,1853.0000,-51.0000,-162.0000,-35.0000,1940.0000,246.0000,9095.0000,-0.7162,-0.5430,0.0263,-0.4376,142.5700,-66.7000,-85.2300,3.3700,-10.6400,-2.8200,0.0000,0.0000,-0.0000,1568.0000,1081.0000,1500.0000,1998.0000
235057.5600,2.0000,1997.0000,1019.0000,1857.0000,-47.0000,-118.0000,-40.0000,1962.0000,-21.0000,9107.0000,-0.7217,-0.5467,0.0409,-0.4227,142.6500,-66.9200,-85.2900,3.6800,-10.2200,-3.0700,0.0000,0.0000,-0.0000,1564.0000,1081.0000,1500.0000,1998.0000
235074.0400,2.0000,1997.0000,1019.0000,1857.0000,-49.0000,-92.0000,-45.0000,1875.0000,51.0000,8129.0000,-0.7270,-0.5483,0.0508,-0.4102,142.7300,-67.1400,-85.3500,3.9300,-9.8700,-3.2800,0.0000,0.0000,-0.0000,1564.0000,1081.0000,1500.0000,1998.0000
235091.2340,2.0000,1997.0000,1019.0000,1857.0000,-57.0000,-60.0000,-48.0000,1916.0000,109.0000,7581.0000,-0.7334,-0.5473,0.0582,-0.3990,142.7300,-67.1400,-85.3500,3.9300,-9.8700,-3.2800,0.0000,0.0000,-0.0000,1564.0000,1081.0000,1500.0000,1998.0000
235108.3590,2.0000,1997.0000,1019.0000,1857.0000,-45.0000,-28.0000,-46.0000,1730.0000,-193.0000,6931.0000,-0.7395,-0.5449,0.0618,-0.3904,142.8100,-67.3500,-85.4100,4.0900,-9.5900,-3.4700,0.0000,0.0000,-0.0000,1564.0000,1081.0000,1500.0000,1998.0000
235125.1610,2.0000,1997.0000,1019.0000,1857.0000,-39.0000,-8.0000,-45.0000,1576.0000,-105.0000,6117.0000,-0.7449,-0.5417,0.0619,-0.3845,142.9000,-67.5300,-85.4800,4.2100,-9.3700,-3.6100,0.0000,0.0000,-0.0000,1564.0000,1081.0000,1500.0000,1998.0000
235141.9290,2.0000,1997.0000,1019.0000,1857.0000,-28.0000,11.0000,-49.0000,1364.0000,1.0000,5200.0000,-0.7498,-0.5385,0.0595,-0.3798,142.9800,-67.7100,-85.5500,4.2800,-9.2100,-3.7200,0.0000,0.0000,-0.0000,1564.0000,1081.0000,1500.0000,1998.0000
235158.6430,2.0000,1997.0000,1083.0000,1921.0000,-19.0000,21.0000,-52.0000,1436.0000,73.0000,4409.0000,-0.7544,-0.5353,0.0545,-0.3760,143.0700,-67.9200,-85.6200,4.3600,-9.1200,-3.7900,0.0000,0.0000,-0.0000,1496.0000,1081.0000,1500.0000,1998.0000
235175.7900,2.0000,1997.0000,1084.0000,1922.0000,-8.0000,27.0000,-54.0000,1349.0000,-209.0000,3720.0000,-0.7585,-0.5326,0.0485,-0.3723,143.1500,-68.1300,-85.6900,4.4400,-9.1100,-3.8200,0.0000,0.0000,-0.0000,1496.0000,1081.0000,1500.0000,1998.0000
235192.6010,2.0000,1997.0000,1084.0000,1922.0000,-7.0000,27.0000,-56.0000,1337.0000,-164.0000,2937.0000,-0.7620,-0.5303,0.0413,-0.3694,143.1500,-68.1300,-85.6900,4.4400,-9.1100,-3.8200,0.0000,0.0000,-0.0000,1496.0000,1081.0000,1500.0000,1998.0000
235209.2270,2.0000,1997.0000,1084.0000,1922.0000,0.0000,15.0000,-59.0000,1202.0000,-284.0000,2305.0000,-0.7650,-0.5294,0.0351,-0.3651,143.2400,-68.3300,-85.7600,4.4900,-9.1600,-3.8000,0.0000,0.0000,-0.0000,1496.0000,1081.0000,1500.0000,1998.0000
235226.0090,2.0000,1997.0000,1084.0000,1922.0000,-5.0000,2.0000,-61.0000,1223.0000,-168.0000,1700.0000,-0.7682,-0.5287,0.0293,-0.3598,143.3200,-68.5300,-85.8300,4.5000,-9.2600,-3.7300,0.0000,0.0000,-0.0000,1496.0000,1081.0000,1500.0000,1998.0000
235242.4890,2.0000,1997.0000,1084.0000,1922.0000,-8.0000,-25.0000,-65.0000,1432.0000,-103.0000,1682.0000,-0.7717,-0.5290,0.0261,-0.3522,143.4000,-68.7100,-85.8900,4.4800,-9.4000,-3.6500,0.0000,0.0000,-0.0000,1496.0000,1081.0000,1500.0000,1998.0000
