span_id,timestamp_ms,tick_counter,target_x_0,target_x_1,target_x_2,target_x_3,target_x_4,target_x_5,target_y_0,target_y_1,target_y_2,target_y_3,target_y_4,target_y_5,target_z_0,target_z_1,target_z_2,target_z_3,target_z_4,target_z_5,dist_0,dist_1,dist_2,dist_3,dist_4,dist_5,closing_rate,quat_w,quat_x,quat_y,quat_z,airspeed,gyro_p,gyro_q,gyro_r,accel_x,accel_y,accel_z,specific_energy,boundary_closure_rate,dist_to_boundary,inward_body_x,inward_body_y,inward_body_z,score_grad_x,score_grad_y,score_grad_z,out_pitch,out_roll,out_throttle,pos_n,pos_e,pos_d,vel_n,vel_e,vel_d,rabbit_n,rabbit_e,rabbit_d,recurrent_reset,path_index,rc_roll,rc_pitch,rc_throttle,state_valid,step_score
1,484878,0,0.9518417920468765,0.9518417920468765,0.9518417920468765,0.9518417920468765,0.9518417920468765,0.9504989776299325,0.04718161564989166,0.04718161564989166,0.04718161564989166,0.04718161564989166,0.04718161564989166,0.06732383190404981,-0.3029267250587481,-0.3029267250587481,-0.3029267250587481,-0.3029267250587481,-0.3029267250587481,-0.3033539841914121,0.0,0.0,0.0,0.0,0.0,0.023193359375,-0.75,-0.013519699697866757,-0.1567430646687216,0.130283516953032,-0.978911709952086,1.454345703125,-0.017333984375,0.09619140625,-0.06103515625,0.0052490234375,0.006103515625,-0.1265869140625,0.3326416015625,0.0,0.9984740745262002,0.0,0.0,0.0,0.040284432508316294,0.002868739890743736,-0.012848292489394819,0.9770500808740501,-0.782219916379284,0.9884334849085971,0.0,0.0,0.0,-18.4296875,0.16015625,4.21875,-0.625,0.0,0.0,1,0,1108,1011,1994,1,0.9871211890011292
1,484929,1,0.9518417920468765,0.9518417920468765,0.9518417920468765,0.9518417920468765,0.9504989776299325,-0.3228553117465743,0.04718161564989166,0.04718161564989166,0.04718161564989166,0.04718161564989166,0.06732383190404981,0.2667928098391675,-0.3029267250587481,-0.3029267250587481,-0.3029267250587481,-0.3029267250587481,-0.3033539841914121,-0.9080782494582964,0.0,0.0,0.0,0.0,0.023193359375,0.009521484375,0.4375,-0.022461622974333934,-0.16211432233649709,0.1403241065706351,-0.9764702291940062,1.4736328125,-0.027099609375,0.02490234375,-0.074462890625,-0.000244140625,0.0006103515625,-0.125244140625,0.334228515625,1.4368896484375,0.9982604449598682,-0.9464400158696249,-0.08938871425519578,0.31028168584246346,-0.7379375591296121,-0.0695822016052736,0.24149296548356577,0.7263405255287332,0.9028290658284249,-0.9572435682241279,-1.1875,0.0,0.25,-18.6796875,0.1484375,4.23828125,-1.1875,0.0,0.0,0,0,1951,1136,1021,1,0.1999572740867336
1,484969,2,0.9518417920468765,0.9518417920468765,0.9518417920468765,0.9504989776299325,-0.3228553117465743,-0.5995056001464888,0.04718161564989166,0.04718161564989166,0.04718161564989166,0.06732383190404981,0.2667928098391675,0.21469771416364025,-0.3029267250587481,-0.3029267250587481,-0.3029267250587481,-0.3033539841914121,-0.9080782494582964,-0.771050141911069,0.0,0.0,0.0,0.023193359375,0.009521484375,0.0166015625,-0.225341796875,-0.025177770317697683,-0.16531876583147678,0.1477095858638264,-0.9747917111728264,1.4775390625,-0.044677734375,0.081787109375,0.004150390625,-0.0040283203125,-0.0032958984375,-0.125732421875,0.333740234375,1.440673828125,0.9981383709219642,-0.9440595721304972,-0.10287789544358654,0.31333353679006315,-0.6539506210516678,-0.03512680440687277,0.10345774712363048,0.6994232001709036,-0.6827600939970092,-0.9309976500747703,-1.9375,0.0,0.4375,-18.73046875,0.1796875,4.25,-1.8125,0.0,0.0,0,0,1158,1150,1034,1,0.23874629963072602
1,485020,3,0.9518417920468765,0.9518417920468765,0.9518417920468765,-0.3228553117465743,-0.5995056001464888,-0.7842036194952239,0.04718161564989166,0.04718161564989166,0.04718161564989166,0.2667928098391675,0.21469771416364025,0.1836298715170751,-0.3029267250587481,-0.3029267250587481,-0.3029267250587481,-0.9080782494582964,-0.771050141911069,-0.5926999725333415,0.0,0.0,0.0,0.009521484375,0.0166015625,0.02587890625,-0.304931640625,-0.025086214789269694,-0.16641743217261268,0.15729239783928953,-0.9731131931516465,1.490478515625,-0.056396484375,0.076416015625,0.037353515625,-0.000732421875,0.0081787109375,-0.1229248046875,0.3349609375,1.4530029296875,0.9979857783745841,-0.9433576464125492,-0.10458693197424238,0.314828943754387,-0.012970366527298808,0.003021332438123722,-0.0097964415417951,0.7939695425275429,0.67329935605945,-0.6097598193304239,-2.75,0.0,0.5625,-18.890625,0.23046875,4.30859375,-2.375,0.0,0.0,0,0,1836,1103,1195,1,0.19556260872219
1,485074,4,0.9518417920468765,0.9518417920468765,0.9504989776299325,-0.5995056001464888,-0.7842036194952239,-0.9138157292397839,0.04718161564989166,0.04718161564989166,0.06732383190404981,0.21469771416364025,0.1836298715170751,0.1250953703421125,-0.3029267250587481,-0.3029267250587481,-0.3033539841914121,-0.771050141911069,-0.5926999725333415,-0.38636432996612446,0.0,0.0,0.023193359375,0.0166015625,0.02587890625,0.04541015625,-0.634033203125,-0.02206488235114597,-0.16647846919156467,0.16260261848811305,-0.9722891933957946,1.49755859375,0.024169921875,0.080078125,0.0556640625,0.0054931640625,0.0087890625,-0.111328125,0.3345947265625,1.4583740234375,0.9977416302987762,-0.9436628315073092,-0.10193182164983063,0.314859462263863,-0.02053895687734611,0.0038453321939756462,-0.011993774224066897,0.7301553392132328,-0.5985900448622089,-0.4707480086672567,-3.875,0.0,0.8125,-18.9609375,0.26953125,4.41015625,-3.0,0.0,0.0,0,0,1200,1134,1264,1,0.18964201788384655
1,485121,5,0.9518417920468765,0.9518417920468765,-0.3228553117465743,-0.7842036194952239,-0.9138157292397839,-0.923673207800531,0.04718161564989166,0.04718161564989166,0.2667928098391675,0.1836298715170751,0.1250953703421125,0.12466811120944853,-0.3029267250587481,-0.3029267250587481,-0.9080782494582964,-0.5926999725333415,-0.38636432996612446,-0.3623767815179907,0.0,0.0,0.009521484375,0.02587890625,0.04541015625,0.056640625,-0.36474609375,-0.017090365306558428,-0.16583758049256875,0.1587267677846614,-0.9731437116611225,1.5107421875,0.02880859375,0.080322265625,0.0625,0.001953125,0.0068359375,-0.111572265625,0.3358154296875,1.470703125,0.9975585192419202,-0.9444868312631611,-0.08993804742576372,0.31601916562395094,-0.02838221381267739,0.0038453321939756462,-0.011139255958738976,0.8027893917661062,0.5704519791253395,-0.4462111270485549,-4.6875,0.0,1.0,-19.12109375,0.3203125,4.48046875,-3.625,0.0,0.0,0,0,1785,1098,1276,1,0.1804254280220954
1,485173,6,0.9518417920468765,0.9518417920468765,-0.5995056001464888,-0.9138157292397839,-0.923673207800531,-0.9497054963835566,0.04718161564989166,0.04718161564989166,0.21469771416364025,0.1250953703421125,0.12466811120944853,0.11444441053498947,-0.3029267250587481,-0.3029267250587481,-0.771050141911069,-0.38636432996612446,-0.3623767815179907,-0.29148228400524917,0.0,0.0,0.0166015625,0.04541015625,0.056640625,0.07763671875,-0.683349609375,-0.012787255470442824,-0.16452528458510085,0.15478988006225777,-0.9740592669454023,1.516845703125,-0.001220703125,-0.00634765625,0.04833984375,-0.0035400390625,0.010009765625,-0.1094970703125,0.335205078125,1.474609375,0.9972838526566362,-0.945585497604297,-0.07745597705008088,0.31604968413342693,-0.03216650898770104,0.004577776421399579,-0.012115848261970886,0.8103274636066774,0.5350199896237068,0.8076723532822657,-5.8125,0.0,1.25,-19.171875,0.37109375,4.6015625,-4.1875,0.0,0.0,0,0,1767,1094,1903,1,0.1703848384044923
1,485223,7,0.9518417920468765,0.9518417920468765,-0.7842036194952239,-0.923673207800531,-0.9497054963835566,-0.967650379955443,0.04718161564989166,0.04718161564989166,0.1836298715170751,0.12466811120944853,0.11444441053498947,0.09811700796533097,-0.3029267250587481,-0.3029267250587481,-0.5926999725333415,-0.3623767815179907,-0.29148228400524917,-0.23236793115024262,0.0,0.0,0.02587890625,0.056640625,0.07763671875,0.10302734375,-0.823974609375,-0.010742515335551012,-0.162968840601825,0.15192114017151404,-0.9747917111728264,1.533447265625,0.008056640625,0.001953125,0.0087890625,-0.0029296875,0.02197265625,-0.142578125,0.3365478515625,1.49072265625,0.9969176305429243,-0.9466841639454329,-0.07181005279702139,0.3140659810174871,-0.03598132267220069,0.003662221137119663,-0.008636738181707206,0.8246406445509201,0.21134067812128055,0.9254737998596149,-7.0625,0.0,1.5,-19.37890625,0.3984375,4.66015625,-4.8125,0.0,0.0,0,0,1605,1087,1962,1,0.14716025269325847
1,485274,8,0.9518417920468765,0.9504989776299325,-0.9138157292397839,-0.9497054963835566,-0.967650379955443,-0.9612109744560076,0.04718161564989166,0.06732383190404981,0.1250953703421125,0.11444441053498947,0.09811700796533097,0.1077303384502701,-0.3029267250587481,-0.3033539841914121,-0.38636432996612446,-0.29148228400524917,-0.23236793115024262,-0.25388348033082064,0.0,0.023193359375,0.04541015625,0.07763671875,0.10302734375,0.111083984375,-0.263671875,-0.009643848994415113,-0.16235847041230506,0.1488692892239143,-0.9754020813623463,1.5361328125,0.001220703125,-0.06640625,0.008544921875,-0.00244140625,0.0125732421875,-0.1217041015625,0.3358154296875,1.493896484375,0.9966734824671163,-0.9470809045686208,-0.06714072084719383,0.31388286996063114,-0.035248878444776754,0.004425183874019593,-0.010834070863979004,0.7486800744651632,0.8149662770470291,-0.9110080263679922,-7.75,0.0,1.625,-19.421875,0.421875,4.640625,-5.375,0.0,0.0,0,0,1907,1125,1044,1,0.14575640125736258
1,485325,9,0.9518417920468765,-0.3228553117465743,-0.923673207800531,-0.967650379955443,-0.9612109744560076,-0.9720145268105106,0.04718161564989166,0.2667928098391675,0.12466811120944853,0.09811700796533097,0.1077303384502701,0.09427167577135533,-0.3029267250587481,-0.9080782494582964,-0.3623767815179907,-0.23236793115024262,-0.25388348033082064,-0.2152165288247322,0.0,0.009521484375,0.056640625,0.10302734375,0.111083984375,0.136962890625,-0.84033203125,-0.011352885525070956,-0.16119876705221717,0.14734336375011445,-0.9757988219855342,1.55322265625,0.020751953125,-0.0029296875,-0.067138671875,-0.0062255859375,0.005615234375,-0.101318359375,0.3372802734375,1.510009765625,0.9962157048249763,-0.9477217932676169,-0.0686056093020417,0.31159398174993136,-0.033204138309884945,0.0032349620044557024,-0.007354960783715323,0.8117007965330973,-0.39268166142765587,0.9734183782464064,-9.0,0.0,1.875,-19.62890625,0.44921875,4.7109375,-6.0,0.0,0.0,0,0,1303,1094,1986,1,0.12234870448927275
1,485377,10,0.9518417920468765,-0.5995056001464888,-0.9497054963835566,-0.9612109744560076,-0.9720145268105106,-0.967650379955443,0.04718161564989166,0.21469771416364025,0.11444441053498947,0.1077303384502701,0.09427167577135533,0.09640797143467512,-0.3029267250587481,-0.771050141911069,-0.29148228400524917,-0.25388348033082064,-0.2152165288247322,-0.23310037537766656,0.0,0.0166015625,0.07763671875,0.111083984375,0.136962890625,0.1455078125,-0.2724609375,-0.013977477340006714,-0.16022217474898526,0.1467329935605945,-0.9760124515518662,1.556640625,0.01123046875,0.041259765625,-0.05126953125,0.007080078125,0.000244140625,-0.09521484375,0.336669921875,1.5123291015625,0.9959410382396924,-0.9482406079287088,-0.07232886745811334,0.30924405652027953,-0.032532731101413005,0.0035706656086916715,-0.008850367748039186,0.7466048158207953,0.8380993072298349,-0.9299295022431104,-9.75,0.0,2.0625,-19.66015625,0.46875,4.76953125,-6.625,0.0,0.0,0,0,1919,1126,1035,1,0.12097537156285287
1,485417,11,0.9518417920468765,-0.7842036194952239,-0.967650379955443,-0.9720145268105106,-0.967650379955443,-0.967314676351207,0.04718161564989166,0.1836298715170751,0.09811700796533097,0.09427167577135533,0.09640797143467512,0.09665211951048311,-0.3029267250587481,-0.5926999725333415,-0.23236793115024262,-0.2152165288247322,-0.23310037537766656,-0.23447370830408643,0.0,0.02587890625,0.10302734375,0.136962890625,0.1455078125,0.157470703125,-0.388427734375,-0.015503402813806574,-0.15936765648365733,0.1477401043733024,-0.9759819330423902,1.56982421875,-0.01318359375,0.109375,-0.00048828125,-0.0140380859375,0.0037841796875,-0.1279296875,0.337890625,1.5247802734375,0.9955748161259804,-0.9486678670613727,-0.07464827417828913,0.3073213904232917,-0.030060731833857234,0.002990813928647725,-0.007293923764763329,0.7379985961485641,-0.5474715414899136,-0.9277016510513626,-10.625,0.0,2.25,-19.8203125,0.51171875,4.828125,-7.1875,0.0,0.0,0,0,1226,1130,1036,1,0.10889004181035798
1,485467,12,0.9518417920468765,-0.9138157292397839,-0.9612109744560076,-0.967650379955443,-0.967314676351207,-0.9718314157536546,0.04718161564989166,0.1250953703421125,0.1077303384502701,0.09640797143467512,0.09665211951048311,0.09247108371227149,-0.3029267250587481,-0.38636432996612446,-0.25388348033082064,-0.23310037537766656,-0.23447370830408643,-0.21683400982696005,0.0,0.04541015625,0.111083984375,0.1455078125,0.157470703125,0.18017578125,-0.7412109375,-0.01608325449385052,-0.15805536057618946,0.14941862239448225,-0.9759208960234382,1.573486328125,0.023193359375,0.080322265625,0.018310546875,-0.0064697265625,0.00439453125,-0.114013671875,0.3370361328125,1.528564453125,0.9950254829554125,-0.9494613483077486,-0.07535019989623706,0.30469679860835597,-0.02740562150944548,0.0028077028717917417,-0.006775109103671377,0.8539994506668295,0.5407879879146702,0.8901028473769341,-11.75,0.0625,2.5,-19.87109375,0.5703125,4.828125,-7.8125,0.0,0.0,0,0,1770,1072,1945,1,0.09903256324961089
1,485527,13,0.9518417920468765,-0.923673207800531,-0.9720145268105106,-0.967314676351207,-0.9718314157536546,-0.977568895535142,0.04718161564989166,0.12466811120944853,0.09427167577135533,0.09665211951048311,0.09247108371227149,0.08883938108462783,-0.3029267250587481,-0.3623767815179907,-0.2152165288247322,-0.23447370830408643,-0.21683400982696005,-0.19098483230079044,0.0,0.056640625,0.136962890625,0.157470703125,0.18017578125,0.206787109375,-0.8681640625,-0.01489303262428663,-0.1588488418225654,0.14819788201544237,-0.9760124515518662,1.5859375,0.050048828125,0.090087890625,0.027099609375,0.0013427734375,0.004638671875,-0.1148681640625,0.337646484375,1.54248046875,0.9942930387279886,-0.9490035706656087,-0.0717795342875454,0.30701620532853174,-0.02252265999328593,0.002044740134891812,-0.004394665364543596,0.8197576830347606,0.5265358439893796,0.9363078707235939,-13.0625,0.0625,2.75,-20.05078125,0.609375,4.76171875,-8.375,0.0,0.0,0,0,1763,1090,1968,1,0.08175908688619647
1,485578,14,0.9518417920468765,-0.9497054963835566,-0.967650379955443,-0.9718314157536546,-0.977568895535142,-0.9754631183812983,0.04718161564989166,0.11444441053498947,0.09640797143467512,0.09247108371227149,0.08883938108462783,0.09207434308908354,-0.3029267250587481,-0.29148228400524917,-0.23310037537766656,-0.21683400982696005,-0.19098483230079044,-0.2000488296151616,0.0,0.07763671875,0.1455078125,0.18017578125,0.206787109375,0.21533203125,-0.278564453125,-0.014282662434766686,-0.15799432355723747,0.1434369945371868,-0.9768669698171941,1.588134765625,0.050048828125,0.072998046875,0.041259765625,-0.0118408203125,0.0206298828125,-0.1346435546875,0.3370361328125,1.5440673828125,0.9938352610858485,-0.9495529038361766,-0.06769005401776178,0.30625324259163184,-0.02206488235114597,0.002227851191747795,-0.004943998535111545,0.6758018738364818,-0.37461470381786555,-0.967772453993347,-13.8125,0.0625,2.875,-20.0703125,0.6484375,4.80078125,-9.0,0.0,0.0,0,0,1312,1162,1016,1,0.08081301309244057
1,485618,15,0.9518417920468765,-0.967650379955443,-0.967314676351207,-0.977568895535142,-0.9754631183812983,-0.9755851924192023,0.04718161564989166,0.09811700796533097,0.09665211951048311,0.08883938108462783,0.09207434308908354,0.08679464094973602,-0.3029267250587481,-0.23236793115024262,-0.23447370830408643,-0.19098483230079044,-0.2000488296151616,-0.20178838465529345,0.0,0.10302734375,0.157470703125,0.206787109375,0.21533203125,0.227783203125,-0.403076171875,-0.014831995605334635,-0.1574755088961455,0.13632618182927947,-0.97796563615833,1.596435546875,0.035888671875,-0.07958984375,-0.0048828125,-0.008056640625,0.0184326171875,-0.1373291015625,0.33740234375,1.5533447265625,0.9932248908963286,-0.9498580889309366,-0.06604205450605792,0.30561235389263586,-0.021149327066866053,0.0021362956633198035,-0.0051576281014435255,0.913174840540788,0.36121707815790277,-0.4503311258278146,-14.6875,0.0625,3.0,-20.19140625,0.6796875,4.75,-9.625,0.0,0.0,0,0,1680,1043,1274,1,0.07815790276802881
1,485668,16,0.9504989776299325,-0.9612109744560076,-0.9718314157536546,-0.9754631183812983,-0.9755851924192023,-0.9717093417157506,0.06732383190404981,0.1077303384502701,0.09247108371227149,0.09207434308908354,0.08679464094973602,0.08166753135776848,-0.3033539841914121,-0.25388348033082064,-0.21683400982696005,-0.2000488296151616,-0.20178838465529345,-0.22159489730521562,0.023193359375,0.111083984375,0.18017578125,0.21533203125,0.227783203125,0.236328125,-0.27490234375,-0.01666310617389447,-0.15286721396526995,0.12543107394634845,-0.9801019318216498,1.59716796875,0.001953125,0.06640625,-0.02880859375,-0.0274658203125,0.003173828125,-0.0897216796875,0.33642578125,1.553466796875,0.9926755577257607,-0.9526352732932524,-0.0641193884090701,0.29728080080568864,-0.019104586931974244,0.0017090365306558428,-0.004699850459303568,0.7379680776390881,0.46684163945432905,-0.923032319101535,-15.4375,0.125,3.1875,-20.19140625,0.7109375,4.7890625,-10.1875,0.0,0.0,0,0,1733,1131,1038,1,0.07184057130649739
1,485720,17,-0.3228553117465743,-0.9720145268105106,-0.977568895535142,-0.9755851924192023,-0.9717093417157506,-0.9592272713400678,0.2667928098391675,0.09427167577135533,0.08883938108462783,0.08679464094973602,0.08166753135776848,0.0739158299508652,-0.9080782494582964,-0.2152165288247322,-0.19098483230079044,-0.20178838465529345,-0.22159489730521562,-0.2728354747154149,0.009521484375,0.136962890625,0.206787109375,0.227783203125,0.236328125,0.263671875,-0.89111328125,-0.024811548203985716,-0.11700796533097324,0.12646870326853238,-0.9847407452620014,1.60205078125,0.0556640625,0.49658203125,0.02001953125,-0.048583984375,0.01953125,-0.17724609375,0.335693359375,1.557373046875,0.9916684469130528,-0.9715262306588947,-0.07040620136112552,0.2262642292550432,-0.016296884060182502,0.0014038514358958708,-0.0051576281014435255,0.8095339823603015,-0.6750083925901059,0.9932554094058046,-16.75,0.125,3.4375,-20.23828125,0.75,4.8515625,-10.8125,0.0,0.0,0,0,1162,1095,1996,1,0.0640583513901181
1,485771,18,-0.5995056001464888,-0.967650379955443,-0.9754631183812983,-0.9717093417157506,-0.9592272713400678,-0.9154942472609637,0.21469771416364025,0.09640797143467512,0.09207434308908354,0.08166753135776848,0.0739158299508652,0.07211523789178137,-0.771050141911069,-0.23310037537766656,-0.2000488296151616,-0.22159489730521562,-0.2728354747154149,-0.3958555864131596,0.0166015625,0.1455078125,0.21533203125,0.236328125,0.263671875,0.28857421875,-0.80712890625,-0.023987548448133795,-0.047883541367839594,0.1021149327066866,-0.9933164464247566,1.59033203125,0.3115234375,0.487060546875,0.060302734375,-0.023681640625,0.0223388671875,-0.421630859375,0.331787109375,1.5567626953125,0.9902340769676808,-0.9945982238227485,-0.04760887478255562,0.09228797265541551,-0.012573625904110843,0.0010376293221839045,-0.005645924253059481,0.8034302804651021,-0.23642689291055025,0.7752616962187566,-17.9375,0.1875,3.6875,-20.23046875,0.94140625,4.16015625,-11.375,0.0,0.0,0,0,1381,1098,1887,1,0.054261909848323006
1,485831,19,-0.7842036194952239,-0.967314676351207,-0.9755851924192023,-0.9592272713400678,-0.9154942472609637,-0.84759056367687,0.1836298715170751,0.09665211951048311,0.08679464094973602,0.0739158299508652,0.07211523789178137,0.08899197363200781,-0.5926999725333415,-0.23447370830408643,-0.20178838465529345,-0.2728354747154149,-0.3958555864131596,-0.5231482894375439,0.02587890625,0.157470703125,0.227783203125,0.263671875,0.28857421875,0.31396484375,-0.82177734375,-0.019928586687826166,0.03457747123630482,0.09393597216711935,-0.9947813348796045,1.583740234375,-0.1201171875,0.43603515625,0.006591796875,0.1123046875,0.049560546875,-0.641845703125,0.3292236328125,1.572509765625,0.9880672627948851,-0.9973143711661122,-0.02087466048158208,-0.07022309030426954,-0.010193182164983062,0.0011597033600878933,-0.006622516556291391,0.815179906613361,0.8628192999053926,0.9752800073244423,-19.1875,0.25,3.875,-20.4296875,1.140625,2.2890625,-12.0,0.0,0.0,0,0,1931,1092,1987,1,0.049378948332163455
1,485872,20,-0.9138157292397839,-0.9718314157536546,-0.9717093417157506,-0.9154942472609637,-0.84759056367687,-0.8002258369701224,0.1250953703421125,0.09247108371227149,0.08166753135776848,0.07211523789178137,0.08899197363200781,0.11203344828638569,-0.38636432996612446,-0.21683400982696005,-0.22159489730521562,-0.3958555864131596,-0.5231482894375439,-0.5891293069246498,0.04541015625,0.18017578125,0.236328125,0.28857421875,0.31396484375,0.32177734375,-0.2568359375,-0.019989623706778162,0.0794091616565447,0.10638752403332621,-0.9909360026856289,1.57470703125,-0.117431640625,0.26708984375,-0.009521484375,0.09765625,0.07421875,-0.634033203125,0.3271484375,1.5718994140625,0.9867244483779413,-0.9872737815485092,-0.009521774956511124,-0.1588183233130894,-0.008789330729087191,0.001281777397991882,-0.006622516556291391,0.7827692495498519,0.5876033814508499,-0.511429181798761,-20.0,0.25,3.9375,-20.421875,1.21875,0.80859375,-12.625,0.0,0.0,0,0,1793,1108,1244,1,0.045930356761375773
1,485925,21,-0.923673207800531,-0.977568895535142,-0.9592272713400678,-0.84759056367687,-0.8002258369701224,-0.7638172551652578,0.12466811120944853,0.08883938108462783,0.0739158299508652,0.08899197363200781,0.11203344828638569,0.12530899990844446,-0.3623767815179907,-0.19098483230079044,-0.2728354747154149,-0.5231482894375439,-0.5891293069246498,-0.6331675160985137,0.056640625,0.206787109375,0.263671875,0.31396484375,0.32177734375,0.331298828125,-0.30712890625,-0.021790215765861997,0.11465804010132145,0.11249122592852565,-0.9867854853968933,1.564208984375,0.115478515625,0.090576171875,-0.02978515625,0.0863037109375,0.055908203125,-0.563720703125,0.324951171875,1.5615234375,0.9855037079989013,-0.9736930448316904,-0.002227851191747795,-0.22779015472884304,-0.008148442030091251,0.001434369945371868,-0.007080294198431349,0.8115787224951934,0.6119876705221717,0.7570116275521104,-20.8125,0.3125,3.9375,-20.28125,1.3984375,-0.51953125,-13.1875,0.0,0.0,0,0,1805,1094,1878,1,0.04535050508133183
1,485974,22,-0.9497054963835566,-0.9754631183812983,-0.9154942472609637,-0.8002258369701224,-0.7638172551652578,-0.770928067873165,0.11444441053498947,0.09207434308908354,0.07211523789178137,0.11203344828638569,0.12530899990844446,0.0990020447401349,-0.29148228400524917,-0.2000488296151616,-0.3958555864131596,-0.5891293069246498,-0.6331675160985137,-0.6291695913571581,0.07763671875,0.21533203125,0.28857421875,0.32177734375,0.331298828125,0.351318359375,-0.652587890625,-0.022919400616473892,0.12558366649372846,0.08877834406567583,-0.9878231147190771,1.541015625,0.21923828125,0.0732421875,0.065673828125,0.0299072265625,0.0433349609375,-0.3870849609375,0.321044921875,1.5302734375,0.9840693380535295,-0.9684438612018189,-0.005584887234107486,-0.24912259285256508,-0.006988738670003357,0.0009155552842799158,-0.005829035309915464,0.8626056703390607,0.39933469649342324,0.9986266670735802,-22.0625,0.375,3.9375,-19.87109375,1.5,-2.0703125,-13.8125,0.0,0.0,0,0,1699,1068,1999,1,0.03994872890408033
1,486025,23,-0.967650379955443,-0.9755851924192023,-0.84759056367687,-0.7638172551652578,-0.770928067873165,-0.7739799188207648,0.09811700796533097,0.08679464094973602,0.08899197363200781,0.12530899990844446,0.0990020447401349,0.0748924222540971,-0.23236793115024262,-0.20178838465529345,-0.5231482894375439,-0.6331675160985137,-0.6291695913571581,-0.6287728507339702,0.10302734375,0.227783203125,0.31396484375,0.331298828125,0.351318359375,0.358642578125,-0.242919921875,-0.01794488357188635,0.13040559099093602,0.05526902066103091,-0.9897457808160649,1.521484375,0.28271484375,0.077392578125,0.042236328125,0.0426025390625,0.01708984375,-0.3109130859375,0.31787109375,1.504150390625,0.9830317087313456,-0.9661244544816431,-0.0019837031159398175,-0.25806451612903225,-0.00695822016052736,0.0007324442274239326,-0.005859553819391461,0.793633838923307,0.40397350993377484,0.12036500137333293,-22.875,0.4375,3.875,-19.53125,1.46875,-2.76953125,-14.375,0.0,0.0,0,0,1701,1103,1560,1,0.03985717337565233
1,486075,24,-0.9612109744560076,-0.9717093417157506,-0.8002258369701224,-0.770928067873165,-0.7739799188207648,-0.7579577013458663,0.1077303384502701,0.08166753135776848,0.11203344828638569,0.0990020447401349,0.0748924222540971,0.055909909360026856,-0.25388348033082064,-0.22159489730521562,-0.5891293069246498,-0.6291695913571581,-0.6287728507339702,-0.6499221778008362,0.111083984375,0.236328125,0.32177734375,0.351318359375,0.358642578125,0.36181640625,-0.097900390625,-0.009979552598651083,0.1480147709585864,0.021454512161626027,-0.988708151493881,1.51123046875,0.185302734375,0.24609375,0.080078125,0.0543212890625,0.00927734375,-0.2235107421875,0.3165283203125,1.489501953125,0.9820245979186376,-0.956328012939848,0.006500442518387402,-0.29224524674214913,-0.006439405499435408,0.0004882961516159551,-0.005615405743583483,0.8070009460737938,-0.008667256691183203,0.6360057374797815,-23.625,0.5,3.75,-19.33984375,1.41015625,-3.1484375,-15.0,0.0,0.0,0,0,1495,1096,1817,1,0.0380565813165685
1,486126,25,-0.9720145268105106,-0.9592272713400678,-0.7638172551652578,-0.7739799188207648,-0.7579577013458663,-0.7110812707907346,0.09427167577135533,0.0739158299508652,0.12530899990844446,0.0748924222540971,0.055909909360026856,0.03375347148045289,-0.2152165288247322,-0.2728354747154149,-0.6331675160985137,-0.6287728507339702,-0.6499221778008362,-0.7022919400616474,0.136962890625,0.263671875,0.331298828125,0.358642578125,0.36181640625,0.382568359375,-0.672607421875,-0.003204443494979705,0.1990417188024537,-0.01391644032105472,-0.9798883022553179,1.496337890625,0.2509765625,0.52978515625,0.02587890625,0.0325927734375,0.0281982421875,-0.367919921875,0.314697265625,1.4697265625,0.9799798577837459,-0.9205603198339793,0.009949034089175085,-0.3905148472548601,-0.005523850215155492,0.00027466658528397473,-0.005615405743583483,0.8775902584917753,0.3428754539628285,0.9994506668294321,-24.8125,0.5625,3.6875,-19.078125,1.3984375,-3.51953125,-15.625,0.0,0.0,0,0,1671,1061,1999,1,0.035828730124820705
1,486177,26,-0.967650379955443,-0.9154942472609637,-0.770928067873165,-0.7579577013458663,-0.7110812707907346,-0.6213873714407788,0.09640797143467512,0.07211523789178137,0.0990020447401349,0.055909909360026856,0.03375347148045289,0.0173650318918424,-0.23310037537766656,-0.3958555864131596,-0.6291695913571581,-0.6499221778008362,-0.7022919400616474,-0.78331858272042,0.1455078125,0.28857421875,0.351318359375,0.36181640625,0.382568359375,0.398681640625,-0.52587890625,0.0025025177770317698,0.271645252845851,-0.03814813684499649,-0.9616382335886715,1.456787109375,0.0712890625,0.46337890625,0.0595703125,0.06591796875,0.039306640625,-0.5179443359375,0.3087158203125,1.4110107421875,0.97903378398999,-0.8515884884182257,0.007141331217383343,-0.5241554002502518,-0.0042115543076876125,0.00012207403790398877,-0.005371257667775506,0.8531449324015015,0.6488845484786523,0.9943235572374646,-25.9375,0.625,3.5,-18.3203125,1.19921875,-4.6484375,-16.1875,0.0,0.0,0,0,1824,1073,1997,1,0.032380138554033024
1,486218,27,-0.967314676351207,-0.84759056367687,-0.7739799188207648,-0.7110812707907346,-0.6213873714407788,-0.5403607287820062,0.09665211951048311,0.08899197363200781,0.0748924222540971,0.03375347148045289,0.0173650318918424,0.013977477340006714,-0.23447370830408643,-0.5231482894375439,-0.6287728507339702,-0.7022919400616474,-0.78331858272042,-0.8413037507248146,0.157470703125,0.31396484375,0.358642578125,0.382568359375,0.398681640625,0.403076171875,-0.144287109375,0.006469924008911405,0.3274330881679739,-0.045686208685567796,-0.9437543870357372,1.43115234375,0.08349609375,0.35791015625,0.01953125,0.11083984375,0.0433349609375,-0.62109375,0.3052978515625,1.3614501953125,0.979094821008942,-0.7842951750236519,0.005829035309915464,-0.620349742118595,-0.0036927396465956603,9.155552842799158e-05,-0.005890072328867458,0.8094424268318735,0.6281929990539262,0.008148442030091251,-26.6875,0.625,3.375,-17.6796875,0.98046875,-5.7109375,-16.8125,0.0,0.0,0,0,1814,1095,1504,1,0.03277687917722098
1,486269,28,-0.9718314157536546,-0.8002258369701224,-0.7579577013458663,-0.6213873714407788,-0.5403607287820062,-0.4781945249794,0.09247108371227149,0.11203344828638569,0.055909909360026856,0.0173650318918424,0.013977477340006714,-0.00424207281716361,-0.21683400982696005,-0.5891293069246498,-0.6499221778008362,-0.78331858272042,-0.8413037507248146,-0.8782311471907712,0.18017578125,0.32177734375,0.36181640625,0.398681640625,0.403076171875,0.40283203125,0.006103515625,0.008239997558519242,0.3688161870174261,-0.06183050019837031,-0.9273964659566026,1.40966796875,0.194580078125,0.171630859375,0.052978515625,0.098388671875,0.0523681640625,-0.5206298828125,0.3028564453125,1.3046875,0.9802545243690298,-0.7261268959624012,-0.0067445905941953795,-0.6875209814752647,-0.003143406476027711,-3.051850947599719e-05,-0.005859553819391461,0.8330942716757713,0.532670064394055,0.8320566423535875,-27.375,0.625,3.1875,-16.94921875,0.6484375,-6.94140625,-17.375,0.0,0.0,0,0,1766,1083,1916,1,0.03180028687398907
1,486320,29,-0.977568895535142,-0.7638172551652578,-0.7110812707907346,-0.5403607287820062,-0.4781945249794,-0.49501022370067443,0.08883938108462783,0.12530899990844446,0.03375347148045289,0.013977477340006714,-0.00424207281716361,-0.03732413708914457,-0.19098483230079044,-0.6331675160985137,-0.7022919400616474,-0.8413037507248146,-0.8782311471907712,-0.8680990020447401,0.206787109375,0.331298828125,0.382568359375,0.403076171875,0.40283203125,0.416259765625,-0.436767578125,0.006347849971007416,0.38181707205420085,-0.08829004791405988,-0.9199804681539354,1.397216796875,0.149169921875,0.0224609375,0.106689453125,0.0555419921875,0.0352783203125,-0.348388671875,0.303466796875,1.2523193359375,0.9808038575395978,-0.706350901821955,-0.032898953215124975,-0.7071138645588549,-0.003143406476027711,-0.00024414807580797754,-0.005615405743583483,0.8728598895229956,0.42283394878994107,0.9991149632251961,-28.4375,0.6875,2.8125,-16.28125,0.1796875,-8.05078125,-18.0,0.0,0.0,0,0,1711,1063,1999,1,0.031006805627613147
1,486370,30,-0.9754631183812983,-0.770928067873165,-0.6213873714407788,-0.4781945249794,-0.49501022370067443,-0.4990997039704581,0.09207434308908354,0.0990020447401349,0.0173650318918424,-0.00424207281716361,-0.03732413708914457,-0.06146427808465835,-0.2000488296151616,-0.6291695913571581,-0.78331858272042,-0.8782311471907712,-0.8680990020447401,-0.8643757438886684,0.21533203125,0.351318359375,0.398681640625,0.40283203125,0.416259765625,0.414794921875,0.05126953125,0.010711996826075015,0.390942106387524,-0.11535996581926938,-0.91308328501236,1.39697265625,0.15478515625,0.039794921875,0.1005859375,0.088134765625,0.0240478515625,-0.2757568359375,0.3052978515625,1.2373046875,0.9804986724448378,-0.6914883877071444,-0.048860133671071504,-0.7207251197851497,-0.0030823694570757164,-0.0003662221137119663,-0.005401776177251503,0.7961058381908628,0.6270943327127904,-0.5733817560350353,-29.0625,0.625,2.5625,-16.08984375,-0.01171875,-8.421875,-18.625,0.0,0.0,0,0,1813,1101,1213,1,0.030274361400189215
1,486423,31,-0.9755851924192023,-0.7739799188207648,-0.5403607287820062,-0.49501022370067443,-0.4990997039704581,-0.49540696432386244,0.08679464094973602,0.0748924222540971,0.013977477340006714,-0.03732413708914457,-0.06146427808465835,-0.06884975737784967,-0.20178838465529345,-0.6287728507339702,-0.8413037507248146,-0.8680990020447401,-0.8643757438886684,-0.8659321878719444,0.227783203125,0.358642578125,0.403076171875,0.416259765625,0.414794921875,0.419189453125,-0.147216796875,0.02206488235114597,0.41233558153019806,-0.1393475142674032,-0.9000518814661091,1.401123046875,0.1416015625,0.2744140625,0.120361328125,0.097900390625,0.0408935546875,-0.2393798828125,0.30908203125,1.2301025390625,0.9794305246131779,-0.6555375835444197,-0.05459761345255898,-0.7531968138676107,-0.0030823694570757164,-0.0004272591326639607,-0.005493331705679495,0.8635212256233405,0.31342509231849114,0.9962462233344523,-29.875,0.625,2.0625,-16.0,-0.23828125,-8.69921875,-19.1875,0.0,0.0,0,0,1656,1068,1998,1,0.030671102023377177
1,486471,32,-0.9717093417157506,-0.7579577013458663,-0.4781945249794,-0.4990997039704581,-0.49540696432386244,-0.4322031311990722,0.08166753135776848,0.055909909360026856,-0.00424207281716361,-0.06146427808465835,-0.06884975737784967,-0.10168767357402264,-0.22159489730521562,-0.6499221778008362,-0.8782311471907712,-0.8643757438886684,-0.8659321878719444,-0.8960234382152775,0.236328125,0.36181640625,0.40283203125,0.414794921875,0.419189453125,0.413330078125,0.193603515625,0.03384502700888089,0.4551225318155461,-0.1760917996765038,-0.8721884823145237,1.38818359375,0.2763671875,0.37646484375,0.187255859375,0.0572509765625,0.0191650390625,-0.311767578125,0.30908203125,1.208251953125,0.97903378398999,-0.5788140507217627,-0.08212530899990844,-0.8113040559099094,-0.002685628833887753,-0.000640888698995941,-0.005645924253059481,0.7983031708731345,0.4666280098879971,-0.6649983214819788,-30.375,0.625,1.75,-15.71875,-0.4609375,-8.8515625,-19.8125,0.0,0.0,0,0,1733,1100,1167,1,0.0304574724570452
1,486523,33,-0.9592272713400678,-0.7110812707907346,-0.49501022370067443,-0.49540696432386244,-0.4322031311990722,-0.3574022644734031,0.0739158299508652,0.03375347148045289,-0.03732413708914457,-0.06884975737784967,-0.10168767357402264,-0.13956114383373516,-0.2728354747154149,-0.7022919400616474,-0.8680990020447401,-0.8659321878719444,-0.8960234382152775,-0.923459578234199,0.263671875,0.382568359375,0.416259765625,0.419189453125,0.413330078125,0.407470703125,0.18994140625,0.04620502334665975,0.5055085909604174,-0.21280556657612842,-0.8348948637348552,1.360595703125,0.10009765625,0.41259765625,0.09765625,0.1085205078125,0.0428466796875,-0.3734130859375,0.3074951171875,1.1663818359375,0.979216895046846,-0.4791405987731559,-0.12125003814813684,-0.8693197424237801,-0.002380443739127781,-0.000946073793755913,-0.006286812952055422,0.8421887874996186,0.5270241401409955,0.8978850672933134,-30.875,0.5625,1.375,-15.1796875,-0.75,-9.05078125,-20.375,0.0,0.0,0,0,1763,1078,1948,1,0.03225806451612903
1,486574,34,-0.9154942472609637,-0.6213873714407788,-0.4990997039704581,-0.4322031311990722,-0.3574022644734031,-0.2663655507065035,0.07211523789178137,0.0173650318918424,-0.06146427808465835,-0.10168767357402264,-0.13956114383373516,-0.1684926908169805,-0.3958555864131596,-0.78331858272042,-0.8643757438886684,-0.8960234382152775,-0.923459578234199,-0.9490340891750847,0.28857421875,0.398681640625,0.414794921875,0.413330078125,0.407470703125,0.393310546875,0.46142578125,0.060060426648762474,0.5532090212714011,-0.24008911404766992,-0.7954344309823909,1.33203125,0.095703125,0.203857421875,0.111083984375,0.0399169921875,0.047607421875,-0.4783935546875,0.3048095703125,1.127685546875,0.9796746726889859,-0.37443159276100957,-0.15485091708120977,-0.9142429883724479,-0.0018616290780358287,-0.0011902218695638905,-0.006714072084719382,0.793053987243263,0.565446943571276,-0.7601855525376141,-31.125,0.5625,1.125,-14.6796875,-1.0,-9.12890625,-21.0,0.0,0.0,0,0,1782,1103,1119,1,0.03317361980040895
1,486624,35,-0.84759056367687,-0.5403607287820062,-0.49540696432386244,-0.3574022644734031,-0.2663655507065035,-0.2269356364635151,0.08899197363200781,0.013977477340006714,-0.06884975737784967,-0.13956114383373516,-0.1684926908169805,-0.17996765037995544,-0.5231482894375439,-0.8413037507248146,-0.8659321878719444,-0.923459578234199,-0.9490340891750847,-0.9571520126956999,0.31396484375,0.403076171875,0.419189453125,0.407470703125,0.393310546875,0.38037109375,0.41845703125,0.07415997802667318,0.5823541978209784,-0.26346629230628377,-0.7654957731864376,1.2783203125,0.091552734375,0.1181640625,0.148681640625,0.0643310546875,0.03076171875,-0.40087890625,0.2991943359375,1.0660400390625,0.9802545243690298,-0.304300057985168,-0.18033387249366742,-0.9353617969298379,-0.0017700735496078372,-0.0014038514358958708,-0.0076906643879512925,0.8190557573168127,0.5668507950071718,0.19718008972441786,-31.4375,0.5,0.6875,-13.87890625,-1.25,-9.05078125,-21.625,-0.0625,0.0,0,0,1783,1090,1598,1,0.03631702627643666
1,486674,36,-0.8002258369701224,-0.4781945249794,-0.4322031311990722,-0.2663655507065035,-0.2269356364635151,-0.20932645649586473,0.11203344828638569,-0.00424207281716361,-0.10168767357402264,-0.1684926908169805,-0.17996765037995544,-0.2022156437879574,-0.5891293069246498,-0.8782311471907712,-0.8960234382152775,-0.9490340891750847,-0.9571520126956999,-0.95669423505356,0.32177734375,0.40283203125,0.413330078125,0.393310546875,0.38037109375,0.36279296875,0.5751953125,0.0805078279976806,0.5965147862178412,-0.2914212469862972,-0.7434614093447676,1.259033203125,0.163818359375,0.24365234375,0.130615234375,0.0321044921875,0.0294189453125,-0.2808837890625,0.2982177734375,1.05078125,0.9797967467268899,-0.2688070314645833,-0.21655934324167608,-0.9385357219153416,-0.0017700735496078372,-0.0017090365306558428,-0.008178960539567248,0.7920773949400312,0.5033112582781457,-0.7625354777672658,-31.625,0.4375,0.4375,-13.6796875,-1.3203125,-8.890625,-22.1875,-0.125,0.0,0,0,1751,1103,1118,1,0.03799554429761651
1,486726,37,-0.7638172551652578,-0.49501022370067443,-0.3574022644734031,-0.2269356364635151,-0.20932645649586473,-0.22186956389049958,0.12530899990844446,-0.03732413708914457,-0.13956114383373516,-0.17996765037995544,-0.2022156437879574,-0.21698660237434003,-0.6331675160985137,-0.8680990020447401,-0.923459578234199,-0.9571520126956999,-0.95669423505356,-0.9506210516678365,0.331298828125,0.416259765625,0.407470703125,0.38037109375,0.36279296875,0.346435546875,0.52734375,0.08206427198095645,0.6043885616626484,-0.32105471968749044,-0.7245094149601733,1.250244140625,0.193359375,0.231201171875,0.12646484375,0.0555419921875,0.012939453125,-0.1851806640625,0.2998046875,1.060302734375,0.977935117648854,-0.24954985198522905,-0.25931577501754816,-0.9329813531907102,-0.0021668141727958007,-0.002075258644367809,-0.009491256447035128,0.7972655415509506,0.48545793023468736,-0.6537980285042878,-31.75,0.375,0.0,-13.80078125,-1.16015625,-8.51171875,-22.8125,-0.1875,0.0,0,0,1742,1101,1173,1,0.0424207281716361
1,486776,38,-0.770928067873165,-0.4990997039704581,-0.2663655507065035,-0.20932645649586473,-0.22186956389049958,-0.21597949156163213,0.0990020447401349,-0.06146427808465835,-0.1684926908169805,-0.2022156437879574,-0.21698660237434003,-0.2349314859462264,-0.6291695913571581,-0.8643757438886684,-0.9490340891750847,-0.95669423505356,-0.9506210516678365,-0.9477217932676169,0.351318359375,0.414794921875,0.393310546875,0.36279296875,0.346435546875,0.328369140625,0.58935546875,0.0837733085116123,0.6133610034485916,-0.35154271065401166,-0.7022614215521714,1.248046875,0.255126953125,0.158203125,0.114990234375,-0.0003662109375,0.031005859375,-0.171875,0.3013916015625,1.0743408203125,0.9761650440992462,-0.2269661549729911,-0.30472731711783196,-0.9249855037079989,-0.0022583697012237922,-0.0024414807580797754,-0.010132145146031068,0.7904599139378032,0.4588152714621418,-0.7599719229712821,-31.875,0.375,-0.25,-13.98046875,-1.01953125,-8.171875,-23.375,-0.3125,0.0,0,0,1729,1104,1120,1,0.04464857936338389
1,486816,39,-0.7739799188207648,-0.49540696432386244,-0.2269356364635151,-0.22186956389049958,-0.21597949156163213,-0.2237922299874874,0.0748924222540971,-0.06884975737784967,-0.17996765037995544,-0.21698660237434003,-0.2349314859462264,-0.26242866298409984,-0.6287728507339702,-0.8659321878719444,-0.9571520126956999,-0.9506210516678365,-0.9477217932676169,-0.9386577959532456,0.358642578125,0.419189453125,0.38037109375,0.346435546875,0.328369140625,0.34033203125,-0.389404296875,0.0858790856654561,0.6252327036347545,-0.37665944395275736,-0.6781212805566577,1.17138671875,0.1357421875,0.2568359375,0.124267578125,-0.0054931640625,0.008544921875,-0.1416015625,0.29296875,0.9884033203125,0.9750968962675863,-0.20056764427625354,-0.3510849330118717,-0.9146092104861598,-0.0022583697012237922,-0.0025940733054597613,-0.009735404522843105,0.880367442854091,0.28653828547013765,0.9995117038483841,-32.75,0.1875,-0.6875,-12.859375,-2.2890625,-7.828125,-24.0,-0.375,0.0,0,0,1643,1059,1999,1,0.04364146855067599
1,486877,40,-0.7579577013458663,-0.4322031311990722,-0.20932645649586473,-0.21597949156163213,-0.2237922299874874,-0.20697653126621296,0.055909909360026856,-0.10168767357402264,-0.2022156437879574,-0.2349314859462264,-0.26242866298409984,-0.3128757591479232,-0.6499221778008362,-0.8960234382152775,-0.95669423505356,-0.9477217932676169,-0.9386577959532456,-0.9269692068239387,0.36181640625,0.413330078125,0.36279296875,0.328369140625,0.34033203125,0.361328125,-0.683349609375,0.09308145390179144,0.6514481032746361,-0.41352580339976197,-0.6292306283761101,1.083251953125,0.089599609375,0.357177734375,0.096923828125,0.0013427734375,0.0107421875,-0.1685791015625,0.2850341796875,0.8870849609375,0.9733573412274544,-0.1379741813409833,-0.42564165166173284,-0.8943144016846217,-0.0017700735496078372,-0.0026551103244117557,-0.007995849482711264,0.8778344065675833,0.3684804834131901,0.9993896298104801,-33.875,-0.1875,-1.25,-11.51171875,-3.6796875,-7.23046875,-24.5625,-0.5,0.0,0,0,1684,1061,1999,1,0.03820917386394849
1,486918,41,-0.7110812707907346,-0.3574022644734031,-0.22186956389049958,-0.2237922299874874,-0.20697653126621296,-0.18024231696523943,0.03375347148045289,-0.13956114383373516,-0.21698660237434003,-0.26242866298409984,-0.3128757591479232,-0.30964079714346754,-0.7022919400616474,-0.923459578234199,-0.9506210516678365,-0.9386577959532456,-0.9269692068239387,-0.9336222418897061,0.382568359375,0.407470703125,0.346435546875,0.34033203125,0.361328125,0.364990234375,-0.120849609375,0.11151463362529374,0.6703390606402784,-0.4250007629627369,-0.597979674672689,1.03466796875,0.05908203125,0.376220703125,0.144775390625,0.062255859375,0.021240234375,-0.240966796875,0.2813720703125,0.82421875,0.9725638599810785,-0.08661152989288003,-0.44526505325479904,-0.89120151371807,-0.0015564439832758568,-0.0026245918149357585,-0.00827051606799524,0.8617816705832088,0.5353556932279427,0.9931638538773766,-34.5,-0.5,-1.5625,-10.6484375,-4.6015625,-6.80859375,-25.125,-0.6875,0.0,0,0,1767,1069,1996,1,0.03878902554399243
1,486972,42,-0.6213873714407788,-0.2663655507065035,-0.21597949156163213,-0.20697653126621296,-0.18024231696523943,-0.14261299478133488,0.0173650318918424,-0.1684926908169805,-0.2349314859462264,-0.3128757591479232,-0.30964079714346754,-0.3031403546250801,-0.78331858272042,-0.9490340891750847,-0.9477217932676169,-0.9269692068239387,-0.9336222418897061,-0.9422284615619373,0.398681640625,0.393310546875,0.328369140625,0.361328125,0.364990234375,0.379150390625,-0.459228515625,0.14282662434766685,0.6969206823938718,-0.4329355754264962,-0.5536057618945891,0.982421875,0.02099609375,0.419677734375,0.13818359375,0.1395263671875,0.0347900390625,-0.2586669921875,0.2786865234375,0.7308349609375,0.9723807489242225,-0.01043733024079104,-0.46241645558030947,-0.8865932187871944,-0.001098666341135899,-0.0022888882106997894,-0.007263405255287332,0.8785058137760552,0.3575243385113071,0.9994201483199561,-35.375,-1.0625,-2.125,-9.3203125,-6.23046875,-6.12109375,-25.75,-0.8125,0.0,0,0,1678,1060,1999,1,0.03521835993530076
1,487020,43,-0.5403607287820062,-0.2269356364635151,-0.2237922299874874,-0.18024231696523943,-0.14261299478133488,-0.07245094149601733,0.013977477340006714,-0.17996765037995544,-0.26242866298409984,-0.30964079714346754,-0.3031403546250801,-0.2976165044099246,-0.8413037507248146,-0.9571520126956999,-0.9386577959532456,-0.9336222418897061,-0.9422284615619373,-0.9519333475753045,0.403076171875,0.38037109375,0.34033203125,0.364990234375,0.379150390625,0.379150390625,0.005859375,0.17670216986602374,0.7223426007873776,-0.4399243140964995,-0.5034638508255257,0.956787109375,0.03076171875,0.41259765625,0.102294921875,0.1478271484375,0.0465087890625,-0.319580078125,0.27783203125,0.674072265625,0.9724112674336985,0.07300027466658529,-0.4795068208868679,-0.8745078890346996,-0.0005493331705679495,-0.0022888882106997894,-0.0076906643879512925,0.8392895290993988,0.738608966338084,0.9609973448896756,-35.8125,-1.4375,-2.375,-8.48046875,-7.1796875,-5.58984375,-26.3125,-1.0,0.0,0,0,1869,1080,1980,1,0.03637806329538865
1,487071,44,-0.4781945249794,-0.20932645649586473,-0.20697653126621296,-0.14261299478133488,-0.07245094149601733,-0.025055696279793694,-0.00424207281716361,-0.2022156437879574,-0.3128757591479232,-0.3031403546250801,-0.2976165044099246,-0.2911465804010132,-0.8782311471907712,-0.95669423505356,-0.9269692068239387,-0.9422284615619373,-0.9519333475753045,-0.956358531449324,0.40283203125,0.36279296875,0.361328125,0.379150390625,0.379150390625,0.384765625,-0.189208984375,0.21243934446241647,0.7415997802667318,-0.44611957152012693,-0.45371868037965024,0.91357421875,-0.05517578125,0.345458984375,0.171630859375,0.1478271484375,0.0308837890625,-0.3291015625,0.2757568359375,0.5836181640625,0.9730521561326945,0.14169743949705496,-0.49705496383556624,-0.8560747093111972,-0.00018311105685598315,-0.0021057771538438063,-0.007110812707907346,0.8765221106601153,0.3824579607531968,0.9992370372631001,-36.4375,-2.0625,-2.8125,-7.12890625,-8.30859375,-4.6015625,-26.875,-1.1875,0.0,0,0,1691,1061,1999,1,0.034333323160496844
1,487122,45,-0.49501022370067443,-0.22186956389049958,-0.18024231696523943,-0.07245094149601733,-0.025055696279793694,0.02261421552171392,-0.03732413708914457,-0.21698660237434003,-0.30964079714346754,-0.2976165044099246,-0.2911465804010132,-0.2782372508926664,-0.8680990020447401,-0.9506210516678365,-0.9336222418897061,-0.9519333475753045,-0.956358531449324,-0.9602343821527757,0.416259765625,0.346435546875,0.364990234375,0.379150390625,0.384765625,0.3798828125,0.16552734375,0.24625385296182134,0.7524033326212348,-0.4525284585100864,-0.41044343394268623,0.8837890625,-0.030029296875,0.3515625,0.14306640625,0.1395263671875,0.0408935546875,-0.3157958984375,0.2740478515625,0.5179443359375,0.9741203039643543,0.19275490585039826,-0.5096591082491531,-0.8384960478530229,0.00021362956633198035,-0.0021057771538438063,-0.00772118289742729,0.8094424268318735,0.8491470076601458,0.7246925260170294,-36.75,-2.5,-3.0,-6.140625,-8.9296875,-3.8203125,-27.4375,-1.4375,0.0,0,0,1924,1095,1862,1,0.036225470748008665
1,487173,46,-0.4990997039704581,-0.21597949156163213,-0.14261299478133488,-0.025055696279793694,0.02261421552171392,0.03347880489516892,-0.06146427808465835,-0.2349314859462264,-0.3031403546250801,-0.2911465804010132,-0.2782372508926664,-0.28113650929288614,-0.8643757438886684,-0.9477217932676169,-0.9422284615619373,-0.956358531449324,-0.9602343821527757,-0.9590746787926878,0.414794921875,0.328369140625,0.379150390625,0.384765625,0.3798828125,0.379638671875,0.00439453125,0.2710043641468551,0.7581713309121982,-0.46250801110873746,-0.37125766777550584,0.858642578125,0.039794921875,0.293212890625,0.184326171875,0.1385498046875,0.0478515625,-0.2745361328125,0.2733154296875,0.4390869140625,0.9757072664571063,0.2185125278481399,-0.5345316934720908,-0.8164311655018769,0.00027466658528397473,-0.0021057771538438063,-0.007354960783715323,0.8765221106601153,0.33124790185247355,0.9990844447157201,-37.1875,-3.1875,-3.25,-4.8984375,-9.69140625,-2.58984375,-28.0,-1.6875,0.0,0,0,1665,1061,1999,1,0.03512680440687277
1,487224,47,-0.49540696432386244,-0.2237922299874874,-0.07245094149601733,0.02261421552171392,0.03347880489516892,0.05459761345255898,-0.06884975737784967,-0.26242866298409984,-0.2976165044099246,-0.2782372508926664,-0.28113650929288614,-0.2889187292092654,-0.8659321878719444,-0.9386577959532456,-0.9519333475753045,-0.9602343821527757,-0.9590746787926878,-0.9558091982787561,0.419189453125,0.34033203125,0.379150390625,0.3798828125,0.379638671875,0.371337890625,0.26904296875,0.29096346934415723,0.761314737388226,-0.4755699331644642,-0.3310037537766655,0.8515625,0.128173828125,0.276611328125,0.14111328125,0.1072998046875,0.0352783203125,-0.2384033203125,0.2734375,0.3956298828125,0.9770805993835261,0.23761711478011413,-0.56587420270394,-0.7895138401440474,0.0005188146610919523,-0.0022888882106997894,-0.008087405011139257,0.8055055391094699,0.7195043794061098,0.05825983458967864,-37.375,-3.6875,-3.4375,-4.1796875,-10.08984375,-1.80078125,-28.5,-1.875,0.0,0,0,1859,1097,1529,1,0.03759880367442854
1,487274,48,-0.4322031311990722,-0.20697653126621296,-0.025055696279793694,0.03347880489516892,0.05459761345255898,0.05026398510696738,-0.10168767357402264,-0.3128757591479232,-0.2911465804010132,-0.28113650929288614,-0.2889187292092654,-0.3174535355693228,-0.8960234382152775,-0.9269692068239387,-0.956358531449324,-0.9590746787926878,-0.9558091982787561,-0.9469283120212408,0.413330078125,0.361328125,0.384765625,0.379638671875,0.371337890625,0.366943359375,0.141845703125,0.3032929471724601,0.7645191808832057,-0.4911648915066988,-0.2869045075838496,0.857177734375,0.12353515625,0.376953125,0.143798828125,0.1300048828125,0.0589599609375,-0.2135009765625,0.275146484375,0.350341796875,0.978942228461562,0.24359874263740958,-0.6116519669179358,-0.7526779992065188,0.0004577776421399579,-0.002563554795983764,-0.007873775444807276,0.8753929258095035,0.3195898312326426,0.9989928891872921,-37.625,-4.375,-3.5625,-3.3515625,-10.609375,-0.62890625,-29.0625,-2.1875,0.0,0,0,1659,1062,1999,1,0.03717154454176458
1,487325,49,-0.3574022644734031,-0.18024231696523943,0.02261421552171392,0.05459761345255898,0.05026398510696738,0.0804773094882046,-0.13956114383373516,-0.30964079714346754,-0.2782372508926664,-0.2889187292092654,-0.3174535355693228,-0.3429364909817805,-0.923459578234199,-0.9336222418897061,-0.9602343821527757,-0.9558091982787561,-0.9469283120212408,-0.9359111301004059,0.407470703125,0.364990234375,0.3798828125,0.371337890625,0.366943359375,0.3564453125,0.342041015625,0.31818597979674673,0.7681203650013734,-0.5033417767876217,-0.23529770805993835,0.87158203125,0.198974609375,0.372802734375,0.20849609375,0.0548095703125,0.006591796875,-0.230712890625,0.2769775390625,0.3238525390625,0.9806207464827418,0.26139103366191596,-0.6555986205633717,-0.7084261604663228,0.0008239997558519242,-0.003021332438123722,-0.0086977752006592,0.8081606494338817,0.5200659199804681,-0.3772087771233253,-37.75,-4.875,-3.625,-2.828125,-10.96875,0.2109375,-29.5625,-2.4375,0.0,0,0,1760,1095,1311,1,0.0402233954893643
1,487366,50,-0.2663655507065035,-0.14261299478133488,0.03347880489516892,0.05026398510696738,0.0804773094882046,0.108706930753502,-0.1684926908169805,-0.3031403546250801,-0.28113650929288614,-0.3174535355693228,-0.3429364909817805,-0.36057618945890685,-0.9490340891750847,-0.9422284615619373,-0.9590746787926878,-0.9469283120212408,-0.9359111301004059,-0.9263588366344188,0.393310546875,0.379150390625,0.379638671875,0.366943359375,0.3564453125,0.344970703125,0.37744140625,0.3323465681936094,0.7704092532120731,-0.510696737571337,-0.18765831476790673,0.873779296875,0.07568359375,0.385986328125,0.17138671875,0.1055908203125,0.0379638671875,-0.2259521484375,0.2774658203125,0.298095703125,0.9822382274849696,0.2764061403241066,-0.6916714987640004,-0.6672261726737266,0.0010681478316599017,-0.003357036042359691,-0.008850367748039186,0.8390148625141148,0.4714499343852046,0.870174260689108,-37.875,-5.375,-3.6875,-2.3515625,-11.0703125,0.98828125,-30.125,-2.75,0.0,0,0,1735,1080,1935,1,0.04113895077364422
1,487427,51,-0.2269356364635151,-0.07245094149601733,0.05459761345255898,0.0804773094882046,0.108706930753502,0.1596118045594653,-0.17996765037995544,-0.2976165044099246,-0.2889187292092654,-0.3429364909817805,-0.36057618945890685,-0.3946958830530717,-0.9571520126956999,-0.9519333475753045,-0.9558091982787561,-0.9359111301004059,-0.9263588366344188,-0.9048432874538408,0.38037109375,0.379150390625,0.371337890625,0.3564453125,0.344970703125,0.337646484375,0.234619140625,0.3615833002716147,0.7728202154606769,-0.5105746635334331,-0.10641804254280221,0.923583984375,0.12744140625,0.503173828125,0.11669921875,0.0882568359375,0.0308837890625,-0.267333984375,0.2828369140625,0.2471923828125,0.9865718558305613,0.31116672261726736,-0.7377849665822321,-0.5990173039948729,0.0017700735496078372,-0.003936887722403638,-0.009521774956511124,0.8641621143223365,0.33967101046784876,0.9944761497848446,-38.0,-6.1875,-3.6875,-1.359375,-11.671875,2.48046875,-30.625,-3.0625,0.0,0,0,1669,1067,1997,1,0.04397717215491195
1,487468,52,-0.20932645649586473,-0.025055696279793694,0.05026398510696738,0.108706930753502,0.1596118045594653,0.20783104953154088,-0.2022156437879574,-0.2911465804010132,-0.3174535355693228,-0.36057618945890685,-0.3946958830530717,-0.40891750846888636,-0.95669423505356,-0.956358531449324,-0.9469283120212408,-0.9263588366344188,-0.9048432874538408,-0.8886074404126102,0.36279296875,0.384765625,0.366943359375,0.344970703125,0.337646484375,0.324462890625,0.428955078125,0.3812067018646809,0.772362437818537,-0.5058137760551774,-0.048005615405743586,0.954833984375,0.174072265625,0.541015625,0.170166015625,0.1290283203125,0.056884765625,-0.3531494140625,0.2861328125,0.22265625,0.988921781060213,0.3347575304422132,-0.7677236243781854,-0.5464033936582537,0.0023194067201757866,-0.0043641468550675985,-0.009704886013367107,0.8054445020905179,0.4580828272347179,-0.47447126682332835,-38.0,-6.6875,-3.625,-0.8515625,-11.87890625,3.5,-31.125,-3.375,0.0,0,0,1729,1097,1262,1,0.04535050508133183
1,487518,53,-0.22186956389049958,0.02261421552171392,0.0804773094882046,0.1596118045594653,0.20783104953154088,0.23654896694845423,-0.21698660237434003,-0.2782372508926664,-0.3429364909817805,-0.3946958830530717,-0.40891750846888636,-0.44184698019348734,-0.9506210516678365,-0.9602343821527757,-0.9359111301004059,-0.9048432874538408,-0.8886074404126102,-0.8653523361919004,0.346435546875,0.3798828125,0.3564453125,0.337646484375,0.324462890625,0.3154296875,0.28955078125,0.40461439863277077,0.7684865871150853,-0.49479659413434246,0.029694509720145267,1.03076171875,0.14892578125,0.5087890625,0.150390625,0.109375,0.025634765625,-0.38916015625,0.2940673828125,0.1903076171875,0.9925229651783807,0.3545945616016114,-0.8051698355052339,-0.47538682210760824,0.003021332438123722,-0.005127109591967528,-0.010528885769219032,0.8391674550614948,0.05203405865657521,0.9479354228339488,-38.0,-7.5625,-3.5,-0.078125,-12.23828125,5.44921875,-31.625,-3.75,0.0,0,0,1526,1080,1973,1,0.04904324472792749
1,487578,54,-0.21597949156163213,0.03347880489516892,0.108706930753502,0.20783104953154088,0.23654896694845423,0.26001770073549607,-0.2349314859462264,-0.28113650929288614,-0.36057618945890685,-0.40891750846888636,-0.44184698019348734,-0.4882656331064791,-0.9477217932676169,-0.9590746787926878,-0.9263588366344188,-0.8886074404126102,-0.8653523361919004,-0.8330637531662953,0.328369140625,0.379638671875,0.344970703125,0.324462890625,0.3154296875,0.305908203125,0.311279296875,0.42118594927823727,0.761192663350322,-0.4806665242469558,0.11017181920834987,1.0859375,0.140380859375,0.43896484375,0.075439453125,0.0601806640625,0.0323486328125,-0.3404541015625,0.2991943359375,0.18603515625,0.9947508163701285,0.3630176702169866,-0.8446607867671743,-0.3933835871456038,0.0032654805139316996,-0.005920590838343455,-0.010315256202887051,0.8251289407025361,0.2638019959105197,0.5375835444196906,-37.9375,-8.4375,-3.25,0.2109375,-12.109375,7.25,-32.125,-4.0625,0.0,0,0,1631,1087,1768,1,0.049745170445875425
1,487628,55,-0.2237922299874874,0.05459761345255898,0.1596118045594653,0.23654896694845423,0.26001770073549607,0.2728354747154149,-0.26242866298409984,-0.2889187292092654,-0.3946958830530717,-0.44184698019348734,-0.4882656331064791,-0.49052400280770286,-0.9386577959532456,-0.9558091982787561,-0.9048432874538408,-0.8653523361919004,-0.8330637531662953,-0.8276009399700919,0.34033203125,0.371337890625,0.337646484375,0.3154296875,0.305908203125,0.2939453125,0.3916015625,0.4390392773216956,0.7484664448988312,-0.4713583788567766,0.1575975829340495,1.127197265625,0.027099609375,0.25732421875,0.087890625,0.0987548828125,0.04638671875,-0.3446044921875,0.30322265625,0.2054443359375,0.9941099276711325,0.36130863368633076,-0.8604693746757408,-0.35923337504196295,0.003997924741355632,-0.006653035065767388,-0.011688589129306926,0.8113040559099094,0.3197424237800226,-0.004425183874019593,-37.9375,-9.0,-3.0,0.12109375,-12.0703125,8.30859375,-32.5625,-4.4375,0.0,0,0,1659,1094,1497,1,0.05484176152836696
1,487669,56,-0.20697653126621296,0.05026398510696738,0.20783104953154088,0.26001770073549607,0.2728354747154149,0.27356791894283883,-0.3128757591479232,-0.3174535355693228,-0.40891750846888636,-0.4882656331064791,-0.49052400280770286,-0.4860377819147313,-0.9269692068239387,-0.9469283120212408,-0.8886074404126102,-0.8330637531662953,-0.8276009399700919,-0.8300119022186956,0.361328125,0.366943359375,0.324462890625,0.305908203125,0.2939453125,0.28125,0.413818359375,0.45368816187017424,0.7374187444685202,-0.46244697408978547,0.19113742484817042,1.17626953125,-0.02392578125,0.30419921875,0.05126953125,0.0838623046875,0.050048828125,-0.336669921875,0.3082275390625,0.220703125,0.9903866695150609,0.3603320413830988,-0.868800927762688,-0.33960997344889676,0.004058961760307627,-0.00695822016052736,-0.012146366771446883,0.8083132419812616,0.3176671651356548,-0.06903286843470564,-37.9375,-9.5,-2.75,0.0703125,-12.05859375,9.3984375,-33.0625,-4.8125,0.0,0,0,1658,1095,1465,1,0.056520279549546804
1,487720,57,-0.18024231696523943,0.0804773094882046,0.23654896694845423,0.2728354747154149,0.27356791894283883,0.23422956022827846,-0.30964079714346754,-0.3429364909817805,-0.44184698019348734,-0.49052400280770286,-0.4860377819147313,-0.4942777794732505,-0.9336222418897061,-0.9359111301004059,-0.8653523361919004,-0.8276009399700919,-0.8300119022186956,-0.837153233436079,0.364990234375,0.3564453125,0.3154296875,0.2939453125,0.28125,0.27734375,0.1240234375,0.46549882503738516,0.7258217108676412,-0.4490188299203467,0.23426007873775445,1.24072265625,0.0986328125,0.363037109375,0.0986328125,0.015380859375,0.0384521484375,-0.364501953125,0.3148193359375,0.2364501953125,0.9848017822809534,0.3543809320352794,-0.8820764793847469,-0.31040375988036745,0.0038453321939756462,-0.007507553331095309,-0.01327555162205878,0.8202154606769005,-0.21283608508560442,0.8544877468184454,-37.875,-10.4375,-2.375,0.12890625,-12.05078125,10.71875,-33.5,-5.25,0.0,0,0,1393,1089,1927,1,0.059907834101382486
1,487771,58,-0.14261299478133488,0.108706930753502,0.26001770073549607,0.27356791894283883,0.23422956022827846,0.23627430036317026,-0.3031403546250801,-0.36057618945890685,-0.4882656331064791,-0.4860377819147313,-0.4942777794732505,-0.49699392681661425,-0.9422284615619373,-0.9263588366344188,-0.8330637531662953,-0.8300119022186956,-0.837153233436079,-0.8349559007538072,0.379150390625,0.344970703125,0.305908203125,0.28125,0.27734375,0.266357421875,0.35400390625,0.4769737846003601,0.7127597888119144,-0.43458357493820005,0.2750022888882107,1.263671875,0.044677734375,0.36962890625,0.12109375,0.02197265625,0.0389404296875,-0.340576171875,0.316162109375,0.2442626953125,0.9803765984069338,0.3532822656941435,-0.8935819574571978,-0.27695547349467453,0.0038758507034516434,-0.007873775444807276,-0.013550218207342753,0.8090151676992096,0.3824579607531968,-0.2513504440443129,-37.875,-10.9375,-2.0625,0.109375,-11.80859375,11.421875,-33.9375,-5.625,0.0,0,0,1691,1095,1374,1,0.061128574480422374
1,487823,59,-0.07245094149601733,0.1596118045594653,0.2728354747154149,0.23422956022827846,0.23627430036317026,0.19266335032197027,-0.2976165044099246,-0.3946958830530717,-0.49052400280770286,-0.4942777794732505,-0.49699392681661425,-0.467909787285989,-0.9519333475753045,-0.9048432874538408,-0.8276009399700919,-0.837153233436079,-0.8349559007538072,-0.8625141148106327,0.379150390625,0.337646484375,0.2939453125,0.27734375,0.266357421875,0.264892578125,0.0517578125,0.4977874080629902,0.6920072023682363,-0.42085024567400126,0.3101596118045595,1.315185546875,-0.127197265625,0.30029296875,0.05517578125,0.0819091796875,0.03955078125,-0.37548828125,0.3206787109375,0.2088623046875,0.9740897854548783,0.35077974791711175,-0.8954130680257576,-0.27423932615131075,0.0033875545518356883,-0.00772118289742729,-0.014954069643238624,0.8330332346568193,0.2737815485091708,0.7814569536423841,-37.75,-11.8125,-1.625,0.80859375,-11.671875,12.46875,-34.375,-6.0625,0.0,0,0,1636,1083,1890,1,0.0641193884090701
1,487873,60,-0.025055696279793694,0.20783104953154088,0.27356791894283883,0.23627430036317026,0.19266335032197027,0.2086855677968688,-0.2911465804010132,-0.40891750846888636,-0.4860377819147313,-0.49699392681661425,-0.467909787285989,-0.4434034241767632,-0.956358531449324,-0.8886074404126102,-0.8300119022186956,-0.8349559007538072,-0.8625141148106327,-0.8717001861629078,0.384765625,0.324462890625,0.28125,0.266357421875,0.264892578125,0.25537109375,0.309326171875,0.5189977721488083,0.6704611346781824,-0.3974120303964354,0.35093234046449173,1.349853515625,0.047119140625,0.41162109375,0.096923828125,0.0552978515625,0.0380859375,-0.371337890625,0.32373046875,0.1917724609375,0.9686574907681509,0.36353648487807855,-0.8978850672933134,-0.24832911160618915,0.003662221137119663,-0.007568590350047304,-0.015259254737998596,0.7999816888943144,0.44093142490920745,-0.5440839869380779,-37.6875,-12.3125,-1.25,1.12890625,-11.4609375,13.23828125,-34.75,-6.5,0.0,0,0,1720,1100,1227,1,0.06491286965544603
1,487926,61,0.02261421552171392,0.23654896694845423,0.23422956022827846,0.19266335032197027,0.2086855677968688,0.18961149937437055,-0.2782372508926664,-0.44184698019348734,-0.4942777794732505,-0.467909787285989,-0.4434034241767632,-0.4142887661366619,-0.9602343821527757,-0.8653523361919004,-0.837153233436079,-0.8625141148106327,-0.8717001861629078,-0.8901638843958861,0.3798828125,0.3154296875,0.27734375,0.264892578125,0.25537109375,0.25732421875,-0.06005859375,0.5374919888912626,0.6451307718131046,-0.3665883358256783,0.40061647389141514,1.393798828125,0.07177734375,0.3798828125,0.080810546875,0.0745849609375,0.037841796875,-0.4334716796875,0.3267822265625,0.15283203125,0.9612720114749596,0.3728141117587817,-0.9032868434705649,-0.21237830744346445,0.003357036042359691,-0.007110812707907346,-0.016266365550706503,0.838038270210883,0.09363078707235939,0.9121677297280801,-37.4375,-13.1875,-0.625,1.828125,-11.171875,14.1484375,-35.1875,-6.9375,0.0,0,0,1546,1080,1956,1,0.06680501724295786
1,487976,62,0.03347880489516892,0.26001770073549607,0.23627430036317026,0.2086855677968688,0.18961149937437055,0.2154606769005402,-0.28113650929288614,-0.4882656331064791,-0.49699392681661425,-0.4434034241767632,-0.4142887661366619,-0.3987853633228553,-0.9590746787926878,-0.8330637531662953,-0.8349559007538072,-0.8717001861629078,-0.8901638843958861,-0.891384624774926,0.379638671875,0.305908203125,0.266357421875,0.25537109375,0.25732421875,0.25048828125,0.217529296875,0.5502182073427534,0.6183965575121311,-0.3325601977599414,0.4519486068300424,1.4052734375,0.136474609375,0.5615234375,0.090087890625,0.052978515625,0.0303955078125,-0.4664306640625,0.3258056640625,0.135498046875,0.9545884578997161,0.3772392956328013,-0.9127780999176001,-0.15662099063081758,0.003814813684499649,-0.006988738670003357,-0.016144291512802514,0.8030030213324382,0.4325388348033082,-0.4929654835657826,-37.3125,-13.6875,-0.25,2.0390625,-10.6796875,14.6796875,-35.5625,-7.4375,0.0,0,0,1716,1098,1253,1,0.06659138767662587
1,488024,63,0.05459761345255898,0.2728354747154149,0.19266335032197027,0.18961149937437055,0.2154606769005402,0.19162572099978636,-0.2889187292092654,-0.49052400280770286,-0.467909787285989,-0.4142887661366619,-0.3987853633228553,-0.35706656086916716,-0.9558091982787561,-0.8276009399700919,-0.8625141148106327,-0.8901638843958861,-0.891384624774926,-0.9142124698629719,0.371337890625,0.2939453125,0.264892578125,0.25732421875,0.25048828125,0.257080078125,-0.212158203125,0.5616931669057283,0.587084566789758,-0.30350657673879206,0.4976958525345622,1.396484375,0.0087890625,0.37646484375,0.060791015625,0.0709228515625,0.0245361328125,-0.5233154296875,0.3197021484375,0.1185302734375,0.945127719962157,0.3721427045503098,-0.9199804681539354,-0.12314218573564867,0.0032349620044557024,-0.00598162785729545,-0.01663258766441847,0.8663594470046083,0.2458265938291574,0.9962767418439283,-37.0,-14.4375,0.4375,2.21875,-9.921875,15.0390625,-35.9375,-7.875,0.0,0,0,1622,1066,1998,1,0.06656086916714987
1,488075,64,0.05026398510696738,0.27356791894283883,0.2086855677968688,0.2154606769005402,0.19162572099978636,0.1858577227088229,-0.3174535355693228,-0.4860377819147313,-0.4434034241767632,-0.3987853633228553,-0.35706656086916716,-0.326212347788934,-0.9469283120212408,-0.8300119022186956,-0.8717001861629078,-0.891384624774926,-0.9142124698629719,-0.9268471327860347,0.366943359375,0.28125,0.25537109375,0.25048828125,0.257080078125,0.254638671875,0.077880859375,0.565477462080752,0.5596179082613605,-0.28196050904873804,0.5362407300027466,1.37890625,0.206787109375,0.242431640625,0.06640625,0.0106201171875,0.04345703125,-0.5255126953125,0.313720703125,0.114501953125,0.9385662404248176,0.3555101168858913,-0.9303567613757744,-0.08972441785943175,0.0031128879665517136,-0.005462813196203497,-0.016266365550706503,0.8057496871852778,0.4483169042023988,-0.4818262276070437,-36.875,-14.875,0.875,2.19140625,-9.390625,15.109375,-36.25,-8.375,0.0,0,0,1724,1097,1259,1,0.06491286965544603
1,488116,65,0.0804773094882046,0.23422956022827846,0.18961149937437055,0.19162572099978636,0.1858577227088229,0.14609210486159857,-0.3429364909817805,-0.4942777794732505,-0.4142887661366619,-0.35706656086916716,-0.326212347788934,-0.2911465804010132,-0.9359111301004059,-0.837153233436079,-0.8901638843958861,-0.9142124698629719,-0.9268471327860347,-0.945463423566393,0.3564453125,0.27734375,0.25732421875,0.257080078125,0.254638671875,0.255615234375,-0.03466796875,0.5602893154698324,0.5451826532792139,-0.2687459944456313,0.5627002777184362,1.354736328125,0.109130859375,0.21826171875,0.142578125,0.0570068359375,0.04638671875,-0.4517822265625,0.306640625,0.1124267578125,0.9334086123233741,0.33552049317911314,-0.9397869808038576,-0.065126499221778,0.0023194067201757866,-0.004730368968779565,-0.017242957853938413,0.8299813837092196,0.19949949644459364,0.7296365245521409,-36.625,-15.375,1.375,2.19140625,-9.0,14.98046875,-36.625,-8.875,0.0,0,0,1599,1085,1864,1,0.06668294320505387
1,488167,66,0.108706930753502,0.23627430036317026,0.2154606769005402,0.1858577227088229,0.14609210486159857,0.09201330607013153,-0.36057618945890685,-0.49699392681661425,-0.3987853633228553,-0.326212347788934,-0.2911465804010132,-0.2770470290231025,-0.9263588366344188,-0.8349559007538072,-0.891384624774926,-0.9268471327860347,-0.945463423566393,-0.956450086977752,0.344970703125,0.266357421875,0.25048828125,0.254638671875,0.255615234375,0.266845703125,-0.359619140625,0.5464339121677297,0.5315408795434431,-0.24768822290719322,0.597949156163213,1.337890625,0.248046875,0.318603515625,0.13525390625,-0.01708984375,0.056396484375,-0.5067138671875,0.2991943359375,0.1162109375,0.9253822443311869,0.3053682058168279,-0.9520554216132084,-0.01834162419507431,0.0013122959074678793,-0.004181035798211615,-0.015350810266426589,0.8785973693044832,0.26007873775444806,0.9994201483199561,-36.375,-16.0,2.0625,2.12890625,-8.609375,14.9609375,-36.9375,-9.375,0.0,0,0,1630,1060,1999,1,0.060579241309854426
1,488217,67,0.1596118045594653,0.19266335032197027,0.19162572099978636,0.14609210486159857,0.09201330607013153,0.0782494582964568,-0.3946958830530717,-0.467909787285989,-0.35706656086916716,-0.2911465804010132,-0.2770470290231025,-0.26374095889156773,-0.9048432874538408,-0.8625141148106327,-0.9142124698629719,-0.945463423566393,-0.956450086977752,-0.9614246040223395,0.337646484375,0.264892578125,0.257080078125,0.255615234375,0.266845703125,0.271728515625,-0.158935546875,0.5340739158299509,0.5166783654286324,-0.22202215643787956,0.631275368511002,1.3046875,0.07763671875,0.3134765625,0.05615234375,0.05029296875,0.0511474609375,-0.4195556640625,0.290771484375,0.111328125,0.9190038758507034,0.2786950285348064,-0.9597460860011597,0.03469954527420881,0.0008850367748039186,-0.0036927396465956603,-0.015533921323282572,0.8196661275063326,0.4008301034577471,0.19953001495406963,-36.1875,-16.375,2.5,2.1015625,-8.140625,14.73046875,-37.25,-9.875,0.0,0,0,1700,1090,1599,1,0.06064027832880642
1,488268,68,0.20783104953154088,0.2086855677968688,0.1858577227088229,0.09201330607013153,0.0782494582964568,0.08969389934995575,-0.40891750846888636,-0.4434034241767632,-0.326212347788934,-0.2770470290231025,-0.26374095889156773,-0.23853267006439405,-0.8886074404126102,-0.8717001861629078,-0.9268471327860347,-0.956450086977752,-0.9614246040223395,-0.9669789727469711,0.324462890625,0.25537109375,0.254638671875,0.266845703125,0.271728515625,0.286376953125,-0.480224609375,0.5317545091097751,0.4857936338389233,-0.18411816766869107,0.6688436536759544,1.278076171875,0.11572265625,0.416015625,0.04150390625,0.0849609375,0.0489501953125,-0.5313720703125,0.28173828125,0.107666015625,0.9074678792687765,0.26081118198187203,-0.9615771965697195,0.08566545609912411,0.0010681478316599017,-0.0030823694570757164,-0.013489181188390759,0.880947294534135,0.2855922116763817,0.99954222235786,-35.875,-16.875,3.25,1.98046875,-7.48828125,14.69921875,-37.5625,-10.375,0.0,0,0,1642,1059,1999,1,0.054383983886227
1,488322,69,0.23654896694845423,0.18961149937437055,0.14609210486159857,0.0782494582964568,0.08969389934995575,0.15518662068544573,-0.44184698019348734,-0.4142887661366619,-0.2911465804010132,-0.26374095889156773,-0.23853267006439405,-0.22190008239997558,-0.8653523361919004,-0.8901638843958861,-0.945463423566393,-0.9614246040223395,-0.9669789727469711,-0.9626453444013794,0.3154296875,0.25732421875,0.255615234375,0.271728515625,0.286376953125,0.293212890625,-0.217529296875,0.532242805261391,0.445356608783227,-0.13403729361857966,0.7073885311441389,1.220947265625,0.132080078125,0.640869140625,0.033447265625,0.06640625,0.050537109375,-0.6876220703125,0.269775390625,0.1002197265625,0.8956266975920896,0.2423169652394177,-0.9584643086031678,0.15048677022614215,0.0017700735496078372,-0.002563554795983764,-0.01327555162205878,0.8471327860347301,0.3191625720999786,0.9471114230780968,-35.6875,-17.25,3.75,1.69140625,-6.5,14.37890625,-37.8125,-10.9375,0.0,0,0,1659,1076,1973,1,0.05368205816827906
1,488369,70,0.26001770073549607,0.2154606769005402,0.09201330607013153,0.08969389934995575,0.15518662068544573,0.18738364818262276,-0.4882656331064791,-0.3987853633228553,-0.2770470290231025,-0.23853267006439405,-0.22190008239997558,-0.20752586443678092,-0.8330637531662953,-0.891384624774926,-0.956450086977752,-0.9669789727469711,-0.9626453444013794,-0.9601123081148717,0.305908203125,0.25048828125,0.266845703125,0.286376953125,0.293212890625,0.30810546875,-0.486083984375,0.5278786584063234,0.4078493606372265,-0.09063997314371167,0.7394329660939359,1.09326171875,0.090576171875,0.260009765625,0.047607421875,0.10107421875,0.0653076171875,-0.7491455078125,0.2471923828125,0.1123046875,0.879909665211951,0.21552171391949218,-0.9550157170323801,0.20371105075228127,0.002075258644367809,-0.0022888882106997894,-0.011505478072450942,0.881435590685751,0.2989288003173925,0.99954222235786,-35.4375,-17.5625,4.4375,0.94140625,-5.1796875,13.19921875,-38.0625,-11.4375,0.0,0,0,1649,1059,1999,1,0.04852443006683554
1,488420,71,0.2728354747154149,0.19162572099978636,0.0782494582964568,0.15518662068544573,0.18738364818262276,0.18836024048585467,-0.49052400280770286,-0.35706656086916716,-0.26374095889156773,-0.22190008239997558,-0.20752586443678092,-0.18436231574449904,-0.8276009399700919,-0.9142124698629719,-0.9614246040223395,-0.9626453444013794,-0.9601123081148717,-0.9646290475173193,0.2939453125,0.257080078125,0.271728515625,0.293212890625,0.30810546875,0.3134765625,-0.177001953125,0.5203405865657521,0.3849299600207526,-0.06662190618610186,0.7593615527817621,1.003662109375,0.09326171875,0.23046875,0.048095703125,0.076904296875,0.043701171875,-0.5977783203125,0.23291015625,0.1253662109375,0.8681295205542161,0.18744468520157476,-0.9538560136722922,0.2346263008514664,0.001892147587511826,-0.0017700735496078372,-0.011474959562974944,0.8733787041840877,0.34931485946226387,0.9984740745262002,-35.3125,-17.75,4.9375,0.2890625,-4.19921875,12.3515625,-38.3125,-12.0,0.0,0,0,1674,1063,1999,1,0.048005615405743586
1,488471,72,0.27356791894283883,0.1858577227088229,0.08969389934995575,0.18738364818262276,0.18836024048585467,0.16324350718710898,-0.4860377819147313,-0.326212347788934,-0.23853267006439405,-0.20752586443678092,-0.18436231574449904,-0.16141239661854914,-0.8300119022186956,-0.9268471327860347,-0.9669789727469711,-0.9601123081148717,-0.9646290475173193,-0.9732963042085024,0.28125,0.254638671875,0.286376953125,0.30810546875,0.3134765625,0.32568359375,-0.393798828125,0.5119479964598529,0.3661000396740623,-0.05032502212591937,0.7754753257850887,0.90771484375,0.03369140625,0.2197265625,0.07421875,0.049560546875,0.047607421875,-0.4676513671875,0.2176513671875,0.138916015625,0.8551591540269173,0.1599169896542253,-0.9540696432386242,0.2533341471602527,0.001586962492751854,-0.0015259254737998596,-0.010315256202887051,0.881435590685751,0.3033539841914121,0.99954222235786,-35.1875,-18.0,5.5625,-0.328125,-3.3203125,11.3203125,-38.5625,-12.5625,0.0,0,0,1651,1059,1999,1,0.04434339426862392
1,488521,73,0.23422956022827846,0.14609210486159857,0.15518662068544573,0.18836024048585467,0.16324350718710898,0.1716971343119602,-0.4942777794732505,-0.2911465804010132,-0.22190008239997558,-0.18436231574449904,-0.16141239661854914,-0.13406781212805566,-0.837153233436079,-0.945463423566393,-0.9626453444013794,-0.9646290475173193,-0.9732963042085024,-0.9759819330423902,0.27734375,0.255615234375,0.293212890625,0.3134765625,0.32568359375,0.33056640625,-0.158203125,0.5036774803918577,0.33829767754142887,-0.03064058351390118,0.7943052461317789,0.858154296875,0.044677734375,0.29931640625,0.07080078125,0.0472412109375,0.0565185546875,-0.451171875,0.2095947265625,0.1448974609375,0.8470107119968261,0.12314218573564867,-0.9545274208807641,0.271523178807947,0.0014954069643238624,-0.0010681478316599017,-0.01022370067445906,0.8789635914181951,0.33274330881679737,0.9993591113010041,-35.0625,-18.125,5.9375,-0.66015625,-2.828125,10.76953125,-38.8125,-13.125,0.0,0,0,1666,1060,1999,1,0.04382457960753197
1,488571,74,0.23627430036317026,0.09201330607013153,0.18738364818262276,0.16324350718710898,0.1716971343119602,0.21897030549027985,-0.49699392681661425,-0.2770470290231025,-0.20752586443678092,-0.16141239661854914,-0.13406781212805566,-0.12588885158848842,-0.8349559007538072,-0.956450086977752,-0.9601123081148717,-0.9732963042085024,-0.9759819330423902,-0.967589342936491,0.266357421875,0.266845703125,0.30810546875,0.32568359375,0.33056640625,0.340576171875,-0.327392578125,0.4937589648121586,0.2910245063631092,0.0075380718405713065,0.8194219794305246,0.773193359375,0.078369140625,0.57763671875,0.033935546875,0.08447265625,0.051513671875,-0.62255859375,0.197265625,0.174072265625,0.836420789208655,0.07040620136112552,-0.9503158665730765,0.3032013916440321,0.0019531846064638203,-0.0010376293221839045,-0.009277626880703146,0.881160924100467,0.3075960570085757,0.99954222235786,-35.0625,-18.1875,6.5625,-1.58984375,-1.8515625,9.75,-39.0,-13.6875,0.0,0,0,1653,1059,1999,1,0.04113895077364422
1,488624,75,0.19266335032197027,0.0782494582964568,0.18836024048585467,0.1716971343119602,0.21897030549027985,0.30896938993499556,-0.467909787285989,-0.26374095889156773,-0.18436231574449904,-0.13406781212805566,-0.12588885158848842,-0.11331522568437757,-0.8625141148106327,-0.9614246040223395,-0.9646290475173193,-0.9759819330423902,-0.967589342936491,-0.9443037202063052,0.264892578125,0.271728515625,0.3134765625,0.33056640625,0.340576171875,0.34326171875,-0.08203125,0.48304696798608354,0.22885830256050294,0.05468916898098697,0.8433790093691824,0.688232421875,0.016357421875,0.56298828125,0.04541015625,0.0928955078125,0.070068359375,-0.80517578125,0.1875,0.211181640625,0.8381603442487869,0.006347849971007416,-0.9438764610736412,0.3302102725302896,0.0026551103244117557,-0.0007629627368999298,-0.009063997314371167,0.8771629993591114,0.3623767815179907,0.9993285927915281,-35.0625,-18.1875,6.875,-2.58984375,-0.96875,8.51171875,-39.1875,-14.25,0.0,0,0,1681,1061,1999,1,0.040955839716788234
1,488674,76,0.2086855677968688,0.08969389934995575,0.16324350718710898,0.21897030549027985,0.30896938993499556,0.3554795983764153,-0.4434034241767632,-0.23853267006439405,-0.16141239661854914,-0.12588885158848842,-0.11331522568437757,-0.09967345194860683,-0.8717001861629078,-0.9669789727469711,-0.9732963042085024,-0.967589342936491,-0.9443037202063052,-0.9293496505630665,0.25537109375,0.286376953125,0.32568359375,0.340576171875,0.34326171875,0.34619140625,-0.095947265625,0.46809289834284495,0.17358928189947204,0.08966338084047976,0.8618121890926848,0.56005859375,0.0146484375,0.27099609375,0.09765625,0.0885009765625,0.065185546875,-0.8248291015625,0.175048828125,0.2777099609375,0.880001220740379,-0.06335642567217017,-0.9392986846522415,0.337229529709769,0.003143406476027711,-0.0007629627368999298,-0.008575701162755212,0.8786278878139592,0.33774834437086093,0.9994506668294321,-35.1875,-18.0625,7.3125,-4.12109375,0.12109375,6.0,-39.3125,-14.8125,0.0,0,0,1668,1060,1999,1,0.03991821039460433
1,488725,77,0.18961149937437055,0.15518662068544573,0.1716971343119602,0.30896938993499556,0.3554795983764153,0.358745078890347,-0.4142887661366619,-0.22190008239997558,-0.13406781212805566,-0.11331522568437757,-0.09967345194860683,-0.07901242103335673,-0.8901638843958861,-0.9626453444013794,-0.9759819330423902,-0.9443037202063052,-0.9293496505630665,-0.9300820947904904,0.25732421875,0.293212890625,0.33056640625,0.34326171875,0.34619140625,0.34375,0.07373046875,0.4503311258278146,0.141392254402295,0.10809656056398205,0.8749656666768395,0.512451171875,0.0390625,0.197021484375,0.090087890625,0.0694580078125,0.0718994140625,-0.6861572265625,0.1705322265625,0.323486328125,0.9412518692587054,-0.12408825952940458,-0.9338663899655141,0.33542893765068515,0.0030823694570757164,-0.0004272591326639607,-0.008789330729087191,0.8750267036957915,0.3679921872615741,0.9991454817346721,-35.375,-17.9375,7.5,-5.05859375,0.6796875,4.28125,-39.5,-15.4375,0.0,0,0,1684,1062,1999,1,0.04046754356517228
1,488776,78,0.2154606769005402,0.18738364818262276,0.21897030549027985,0.3554795983764153,0.358745078890347,0.32505264442884607,-0.3987853633228553,-0.20752586443678092,-0.12588885158848842,-0.09967345194860683,-0.07901242103335673,-0.06888027588732566,-0.891384624774926,-0.9601123081148717,-0.967589342936491,-0.9293496505630665,-0.9300820947904904,-0.9431745353556932,0.25048828125,0.30810546875,0.340576171875,0.34619140625,0.34375,0.34033203125,0.11376953125,0.42988372447889645,0.12131107516708883,0.1227149266029847,0.8862575151829585,0.49658203125,0.060546875,0.26123046875,0.12060546875,0.050048828125,0.04736328125,-0.4976806640625,0.168212890625,0.35302734375,0.9535203100680563,-0.1858882412182989,-0.9228186895352031,0.337382122257149,0.0029297769096957305,-0.0004882961516159551,-0.008941923276467178,0.8769188512833033,0.33124790185247355,0.9992370372631001,-35.625,-17.6875,7.75,-5.8203125,1.3984375,2.421875,-39.625,-16.0,0.0,0,0,1665,1061,1999,1,0.04083376567888424
1,488821,79,0.19162572099978636,0.18836024048585467,0.30896938993499556,0.358745078890347,0.32505264442884607,0.29923398541215246,-0.35706656086916716,-0.18436231574449904,-0.11331522568437757,-0.07901242103335673,-0.06888027588732566,-0.05798516800439467,-0.9142124698629719,-0.9646290475173193,-0.9443037202063052,-0.9300820947904904,-0.9431745353556932,-0.9524216437269204,0.257080078125,0.3134765625,0.34326171875,0.34375,0.34033203125,0.333984375,0.2041015625,0.412793359172338,0.09707937864314707,0.1444441053498947,0.8940397350993378,0.5791015625,0.134033203125,0.396484375,0.073974609375,0.0672607421875,0.0614013671875,-0.4881591796875,0.173095703125,0.38671875,0.9523606067079684,-0.24222540971098971,-0.9082308420056765,0.3411969359416486,0.014862514114810634,-0.012909329508346813,-0.0067445905941953795,0.8580889309366131,0.3282876064333018,0.988586077455977,-36.0,-17.4375,7.8125,-6.87109375,2.6484375,1.5703125,-39.6875,-16.625,0.0,0,0,1664,1070,1994,1,0.1543321024201178
1,488867,80,0.1858577227088229,0.16324350718710898,0.3554795983764153,0.32505264442884607,0.29923398541215246,0.33838923306985685,-0.326212347788934,-0.16141239661854914,-0.09967345194860683,-0.06888027588732566,-0.05798516800439467,-0.06152531510361034,-0.9268471327860347,-0.9732963042085024,-0.9293496505630665,-0.9431745353556932,-0.9524216437269204,-0.9389934995574816,0.254638671875,0.32568359375,0.34619140625,0.34033203125,0.333984375,0.330078125,0.128662109375,0.3881038850062563,0.04483169042023988,0.1890926847132786,0.9009063997314372,0.650146484375,0.135009765625,0.6171875,0.050048828125,0.0845947265625,0.0582275390625,-0.6619873046875,0.177978515625,0.424072265625,0.9512619403668325,-0.3225196081423383,-0.8847621082186345,0.33637501144444104,0.01651051362651448,-0.014221625415814692,-0.006378368480483413,0.8725241859187597,0.3169957579271828,0.9985045930356762,-36.3125,-17.125,7.8125,-7.7109375,3.421875,0.55859375,-39.8125,-17.1875,0.0,0,0,1658,1063,1999,1,0.16342661824396496
1,488917,81,0.14609210486159857,0.1716971343119602,0.358745078890347,0.29923398541215246,0.33838923306985685,0.3737907040620136,-0.2911465804010132,-0.13406781212805566,-0.07901242103335673,-0.05798516800439467,-0.06152531510361034,-0.05453657643360698,-0.945463423566393,-0.9759819330423902,-0.9300820947904904,-0.9524216437269204,-0.9389934995574816,-0.9259010589922788,0.255615234375,0.33056640625,0.34375,0.333984375,0.330078125,0.3251953125,0.1572265625,0.3638111514633625,-0.018402661214026308,0.2336802270577105,0.9014862514114811,0.733154296875,0.06494140625,0.40234375,0.093994140625,0.0916748046875,0.0660400390625,-0.83935546875,0.18505859375,0.4786376953125,0.9512924588763085,-0.4009521774956511,-0.8640095217749565,0.304483169042024,0.019653920102542192,-0.015533921323282572,-0.008026367992187262,0.8308359019745476,0.4497817926572466,0.8236640522476882,-36.8125,-16.75,7.8125,-8.5703125,3.8203125,-1.671875,-39.875,-17.8125,0.0,0,0,1724,1084,1911,1,0.18112735374004332
1,488968,82,0.09201330607013153,0.21897030549027985,0.32505264442884607,0.33838923306985685,0.3737907040620136,0.36896877956480606,-0.2770470290231025,-0.12588885158848842,-0.06888027588732566,-0.06152531510361034,-0.05453657643360698,-0.028321176793725394,-0.956450086977752,-0.967589342936491,-0.9431745353556932,-0.9389934995574816,-0.9259010589922788,-0.9290139469588305,0.266845703125,0.340576171875,0.34033203125,0.330078125,0.3251953125,0.32373046875,0.045654296875,0.3391827143162328,-0.05914487136448256,0.2585833307901242,0.902554399243141,0.78466796875,0.048583984375,0.15380859375,0.109619140625,0.0726318359375,0.049072265625,-0.70703125,0.1904296875,0.508056640625,0.9548631244850001,-0.4636371959593493,-0.8447828608050783,0.26718955046235543,0.021607104709006012,-0.01696829126865444,-0.00946073793755913,0.8758507034516434,0.32087160863063446,0.9991454817346721,-37.1875,-16.375,7.6875,-8.87109375,3.75,-3.359375,-39.9375,-18.375,0.0,0,0,1660,1062,1999,1,0.19406720175786615
1,489040,83,0.0782494582964568,0.30896938993499556,0.29923398541215246,0.3737907040620136,0.36896877956480606,0.21735282448805202,-0.26374095889156773,-0.11331522568437757,-0.05798516800439467,-0.05453657643360698,-0.028321176793725394,-0.026337473677785578,-0.9614246040223395,-0.9443037202063052,-0.9524216437269204,-0.9259010589922788,-0.9290139469588305,-0.9757377849665823,0.271728515625,0.34326171875,0.333984375,0.3251953125,0.32373046875,0.32177734375,0.0693359375,0.30698568681905575,-0.08087405011139256,0.29071932126834926,0.902615436262093,0.880615234375,0.14111328125,0.29443359375,0.129638671875,0.0645751953125,0.030517578125,-0.46533203125,0.2021484375,0.5377197265625,0.9617297891170995,-0.5529343546861172,-0.7968382824182867,0.24353770561845758,0.022553178502761926,-0.020172734763634143,-0.0195928830835902,0.826502273628956,-0.013214514603106785,0.8408459730826746,-38.375,-15.375,7.375,-9.19140625,4.1484375,-5.421875,-40.0,-19.0,0.0,0,0,1493,1086,1920,1,0.22885830256050294
1,489069,84,0.08969389934995575,0.3554795983764153,0.33838923306985685,0.36896877956480606,0.21735282448805202,0.18082216864528336,-0.23853267006439405,-0.09967345194860683,-0.06152531510361034,-0.028321176793725394,-0.026337473677785578,-0.006469924008911405,-0.9669789727469711,-0.9293496505630665,-0.9389934995574816,-0.9290139469588305,-0.9757377849665823,-0.9834894863734855,0.286376953125,0.34619140625,0.330078125,0.32373046875,0.32177734375,0.331787109375,-0.328857421875,0.29013946958830533,-0.09692678609576709,0.3105868709372234,0.8999603259376812,0.931884765625,0.1044921875,0.360595703125,0.075439453125,0.0750732421875,0.069580078125,-0.464599609375,0.2083740234375,0.568603515625,0.9607837153233436,-0.5890377513962218,-0.7748954741050447,0.22925504318369092,0.02206488235114597,-0.020172734763634143,-0.02264473403118992,0.8760948515274514,0.16461684011352887,0.9994811853389081,-38.6875,-15.125,7.25,-9.69140625,4.48828125,-5.71875,-40.0,-19.5625,0.0,0,0,1582,1061,1999,1,0.2380138554033021
1,489119,85,0.15518662068544573,0.358745078890347,0.3737907040620136,0.21735282448805202,0.18082216864528336,0.1325418866542558,-0.22190008239997558,-0.07901242103335673,-0.05453657643360698,-0.026337473677785578,-0.006469924008911405,0.008606219672231208,-0.9626453444013794,-0.9300820947904904,-0.9259010589922788,-0.9757377849665823,-0.9834894863734855,-0.9911496322519608,0.293212890625,0.34375,0.3251953125,0.32177734375,0.331787109375,0.3466796875,-0.485107421875,0.2587969603564562,-0.1477401043733024,0.3445234534745323,0.8902249214148381,1.114990234375,0.03662109375,0.6005859375,0.044677734375,0.09375,0.0667724609375,-0.59228515625,0.233154296875,0.7119140625,0.9533066805017243,-0.6508682515945922,-0.7431257057405316,0.1554002502517777,0.018982512894070255,-0.018189031647694327,-0.0304574724570452,0.8776818140202033,0.2262947477645192,0.9994811853389081,-39.75,-14.375,6.9375,-11.75,5.26171875,-6.66015625,-40.0,-20.1875,0.0,0,0,1613,1061,1999,1,0.25580614642780847
1,489170,86,0.18738364818262276,0.32505264442884607,0.36896877956480606,0.18082216864528336,0.1325418866542558,0.17126987517929623,-0.20752586443678092,-0.06888027588732566,-0.028321176793725394,-0.006469924008911405,0.008606219672231208,0.049287392803735466,-0.9601123081148717,-0.9431745353556932,-0.9290139469588305,-0.9834894863734855,-0.9911496322519608,-0.9839777825251015,0.30810546875,0.34033203125,0.32373046875,0.331787109375,0.3466796875,0.3671875,-0.66259765625,0.2261726737266152,-0.2161931211279641,0.36475722525711846,0.8769493697927793,1.1982421875,-0.049560546875,0.434814453125,0.046142578125,0.109619140625,0.0618896484375,-0.753173828125,0.246337890625,0.7921142578125,0.9487594225898007,-0.6822412793359173,-0.7301248207037568,0.03814813684499649,0.018555253761406293,-0.015594958342234566,-0.03271584215826899,0.879696035645619,0.315134128849147,0.9995117038483841,-40.4375,-13.9375,6.625,-12.6484375,5.08984375,-7.53125,-40.0,-20.8125,0.0,0,0,1657,1060,1999,1,0.26017029328287605
1,489220,87,0.18836024048585467,0.29923398541215246,0.21735282448805202,0.1325418866542558,0.17126987517929623,0.12884914700766015,-0.18436231574449904,-0.05798516800439467,-0.026337473677785578,0.008606219672231208,0.049287392803735466,0.09219641712698752,-0.9646290475173193,-0.9524216437269204,-0.9757377849665823,-0.9911496322519608,-0.9839777825251015,-0.9873653370769372,0.3134765625,0.333984375,0.32177734375,0.3466796875,0.3671875,0.396484375,-0.949951171875,0.19849238563188573,-0.26474806970427567,0.3735465559862056,0.8665730765709403,1.292236328125,0.036865234375,0.21923828125,0.06787109375,0.08154296875,0.0609130859375,-0.6644287109375,0.263427734375,0.8931884765625,0.9418622394482253,-0.6992095706045717,-0.7118442335276345,-0.06622516556291391,0.01272621845149083,-0.009308145390179145,-0.03573717459639271,0.879634998626667,0.26789147618030335,0.9995117038483841,-41.5625,-13.3125,6.1875,-13.55078125,4.23828125,-8.98046875,-39.9375,-21.375,0.0,0,0,1633,1060,1999,1,0.2534562211981567
1,489271,88,0.16324350718710898,0.33838923306985685,0.18082216864528336,0.17126987517929623,0.12884914700766015,0.09915463728751488,-0.16141239661854914,-0.06152531510361034,-0.006469924008911405,0.049287392803735466,0.09219641712698752,0.11777092806787316,-0.9732963042085024,-0.9389934995574816,-0.9834894863734855,-0.9839777825251015,-0.9873653370769372,-0.9880672627948851,0.32568359375,0.330078125,0.331787109375,0.3671875,0.396484375,0.424560546875,-0.914794921875,0.1749626148258919,-0.28745384075441754,0.3827936643574328,0.8603473006378368,1.335693359375,-0.041015625,0.144287109375,0.109619140625,0.0982666015625,0.023193359375,-0.5299072265625,0.2724609375,0.9365234375,0.9372234260078738,-0.7159337137974181,-0.6873073519089328,-0.12265388958403271,0.009277626880703146,-0.006653035065767388,-0.03555406353953673,0.879696035645619,0.2850123599963378,0.9995117038483841,-42.3125,-12.9375,5.875,-13.921875,3.87890625,-9.62890625,-39.875,-22.0,0.0,0,0,1642,1060,1999,1,0.24494155705435347
1,489321,89,0.1716971343119602,0.3737907040620136,0.1325418866542558,0.12884914700766015,0.09915463728751488,0.031617175817133095,-0.13406781212805566,-0.05453657643360698,0.008606219672231208,0.09219641712698752,0.11777092806787316,0.13171788689840389,-0.9759819330423902,-0.9259010589922788,-0.9911496322519608,-0.9873653370769372,-0.9880672627948851,-0.9907834101382489,0.33056640625,0.3251953125,0.3466796875,0.396484375,0.424560546875,0.46240234375,-1.229736328125,0.15170751060518203,-0.30201116977446824,0.39497054963835565,0.8542741172521134,1.392822265625,-0.010986328125,0.18017578125,0.115478515625,0.075927734375,0.0496826171875,-0.4002685546875,0.285400390625,1.00048828125,0.9267555772576067,-0.7361064485610522,-0.6551713614307078,-0.16998809778130436,0.0037232581560716575,-0.0026551103244117557,-0.032685323648792994,0.8781090731528672,0.2186346018860439,0.9995117038483841,-43.5,-12.4375,5.3125,-14.55078125,3.5703125,-10.171875,-39.8125,-22.5625,0.0,0,0,1609,1060,1999,1,0.22247993408001954
1,489371,90,0.21897030549027985,0.36896877956480606,0.17126987517929623,0.09915463728751488,0.031617175817133095,0.03656117435224464,-0.12588885158848842,-0.028321176793725394,0.049287392803735466,0.11777092806787316,0.13171788689840389,0.1435590685750908,-0.967589342936491,-0.9290139469588305,-0.9839777825251015,-0.9880672627948851,-0.9907834101382489,-0.988952299569689,0.340576171875,0.32373046875,0.3671875,0.424560546875,0.46240234375,0.49560546875,-1.08154296875,0.12265388958403271,-0.32453382976775413,0.4086428418836024,0.8442030091250343,1.41552734375,0.0146484375,0.32958984375,0.101318359375,0.0743408203125,0.0452880859375,-0.35302734375,0.2916259765625,1.0360107421875,0.9177831354716636,-0.7475203711050752,-0.6240119632557146,-0.22763756218146305,0.0026245918149357585,-0.0013428144169438765,-0.030182805871761222,0.8769493697927793,0.19269386883144626,0.9994811853389081,-44.25,-12.1875,5.0,-14.890625,3.3515625,-10.28125,-39.75,-23.1875,0.0,0,0,1596,1061,1999,1,0.20853297524948883
1,489422,91,0.30896938993499556,0.21735282448805202,0.12884914700766015,0.031617175817133095,0.03656117435224464,0.05825983458967864,-0.11331522568437757,-0.026337473677785578,0.09219641712698752,0.13171788689840389,0.1435590685750908,0.14151432844019898,-0.9443037202063052,-0.9757377849665823,-0.9873653370769372,-0.9907834101382489,-0.988952299569689,-0.9882198553422651,0.34326171875,0.32177734375,0.396484375,0.46240234375,0.49560546875,0.538330078125,-1.3896484375,0.08767967772453994,-0.36420789208655047,0.4271370586260567,0.8229316080202643,1.439697265625,0.06494140625,0.48583984375,0.121826171875,0.0897216796875,0.06689453125,-0.4075927734375,0.2996826171875,1.09423828125,0.8995941038239692,-0.7381817072054201,-0.5965758232367931,-0.314981536301767,0.0019226660969878231,0.00021362956633198035,-0.02554399243140965,0.8774376659443953,0.19525742362743004,0.9994811853389081,-45.4375,-11.8125,4.375,-15.390625,2.671875,-10.30859375,-39.625,-23.75,0.0,0,0,1597,1061,1999,1,0.1835993530075991
1,489472,92,0.3554795983764153,0.18082216864528336,0.09915463728751488,0.03656117435224464,0.05825983458967864,0.1586657307657094,-0.09967345194860683,-0.006469924008911405,0.11777092806787316,0.1435590685750908,0.14151432844019898,0.13303018280587176,-0.9293496505630665,-0.9834894863734855,-0.9880672627948851,-0.988952299569689,-0.9882198553422651,-0.9783318582720419,0.34619140625,0.331787109375,0.424560546875,0.49560546875,0.538330078125,0.574951171875,-1.185302734375,0.04647968993194372,-0.41914120914334546,0.445387127292703,0.7897885067293313,1.431396484375,0.042236328125,0.51806640625,0.11669921875,0.1192626953125,0.0523681640625,-0.567138671875,0.3009033203125,1.10888671875,0.8878749961851863,-0.6979277932065798,-0.5791497543259987,-0.42127750480666526,0.0037232581560716575,0.0003357036042359691,-0.022766808069093907,0.880123294778283,0.27005829035309914,0.99954222235786,-46.1875,-11.5625,4.0,-15.33984375,1.8984375,-10.359375,-39.5,-24.375,0.0,0,0,1635,1059,1999,1,0.17004913480025635
1,489523,93,0.358745078890347,0.1325418866542558,0.031617175817133095,0.05825983458967864,0.1586657307657094,0.25266273995178073,-0.07901242103335673,0.008606219672231208,0.13171788689840389,0.14151432844019898,0.13303018280587176,0.12326425977355265,-0.9300820947904904,-0.9911496322519608,-0.9907834101382489,-0.9882198553422651,-0.9783318582720419,-0.9596850489822077,0.34375,0.3466796875,0.46240234375,0.538330078125,0.574951171875,0.6123046875,-1.214599609375,0.007477034821619312,-0.4687337870418409,0.45851008636738183,0.7549974059266945,1.397705078125,-0.01806640625,0.37890625,0.11669921875,0.0914306640625,0.0595703125,-0.6121826171875,0.2977294921875,1.1016845703125,0.8755760368663594,-0.6435438093203528,-0.565599536118656,-0.5157017731254006,0.004943998535111545,0.0007324442274239326,-0.019104586931974244,0.880428479873043,0.29227576525162513,0.9995117038483841,-47.0,-11.4375,3.6875,-14.8984375,0.66015625,-10.37890625,-39.375,-24.9375,0.0,0,0,1646,1059,1999,1,0.15189062166203804
1,489573,94,0.32505264442884607,0.17126987517929623,0.03656117435224464,0.1586657307657094,0.25266273995178073,0.28415784173100983,-0.06888027588732566,0.049287392803735466,0.1435590685750908,0.13303018280587176,0.12326425977355265,0.11114841151158178,-0.9431745353556932,-0.9839777825251015,-0.988952299569689,-0.9783318582720419,-0.9596850489822077,-0.9522995696890164,0.34033203125,0.3671875,0.49560546875,0.574951171875,0.6123046875,0.654541015625,-1.3779296875,-0.02163762321848201,-0.49742118594927826,0.4685506759849849,0.7297891170995209,1.32470703125,0.016845703125,0.177978515625,0.07080078125,0.1011962890625,0.06396484375,-0.51806640625,0.2894287109375,1.0601806640625,0.8574785607470932,-0.6048158207953124,-0.5512558366649373,-0.5747245704519791,0.00466933194982757,0.0005798516800439467,-0.016754661702322458,0.879940183721427,0.25946836756492814,0.99954222235786,-48.0625,-11.3125,3.125,-13.9296875,-0.96875,-10.078125,-39.25,-25.5,0.0,0,0,1629,1060,1999,1,0.13885921811578722
1,489624,95,0.29923398541215246,0.12884914700766015,0.05825983458967864,0.25266273995178073,0.28415784173100983,0.3017365031891842,-0.05798516800439467,0.09219641712698752,0.14151432844019898,0.12326425977355265,0.11114841151158178,0.1010467848750267,-0.9524216437269204,-0.9873653370769372,-0.9882198553422651,-0.9596850489822077,-0.9522995696890164,-0.9480269783623768,0.333984375,0.396484375,0.538330078125,0.6123046875,0.654541015625,0.6884765625,-1.097900390625,-0.04074221015045625,-0.510788293099765,0.4768822290719321,0.7141636402478103,1.283935546875,0.006103515625,0.1416015625,0.0546875,0.0838623046875,0.034912109375,-0.3572998046875,0.285400390625,1.0364990234375,0.8439588610492263,-0.5858638264107181,-0.5402996917630543,-0.6040223395489365,0.0043641468550675985,0.000640888698995941,-0.014526810510574664,0.880184331797235,0.26987517929624316,0.99954222235786,-48.75,-11.3125,2.8125,-13.37109375,-1.98828125,-9.7890625,-39.0625,-26.0625,0.0,0,0,1634,1059,1999,1,0.12582781456953643
1,489674,96,0.33838923306985685,0.09915463728751488,0.1586657307657094,0.28415784173100983,0.3017365031891842,0.31467635120700704,-0.06152531510361034,0.11777092806787316,0.13303018280587176,0.11114841151158178,0.1010467848750267,0.08529923398541216,-0.9389934995574816,-0.9880672627948851,-0.9783318582720419,-0.9522995696890164,-0.9480269783623768,-0.945371868037965,0.330078125,0.424560546875,0.574951171875,0.654541015625,0.6884765625,0.725341796875,-1.200927734375,-0.06353953672902615,-0.5245521408734397,0.4861903744621113,0.696005127109592,1.238525390625,0.03369140625,0.349365234375,0.112060546875,0.0906982421875,0.0341796875,-0.2781982421875,0.28173828125,1.0126953125,0.8222602008117923,-0.564226203192236,-0.5269631031220435,-0.6356089968565936,0.004028443250831629,0.0004272591326639607,-0.013092440565202796,0.8779259620960113,0.20471816156498918,0.9995117038483841,-49.6875,-11.375,2.375,-12.83984375,-2.91015625,-9.26953125,-38.875,-26.625,0.0,0,0,1602,1061,1999,1,0.11716055787835322
1,489725,97,0.3737907040620136,0.031617175817133095,0.25266273995178073,0.3017365031891842,0.31467635120700704,0.39500106814783165,-0.05453657643360698,0.13171788689840389,0.12326425977355265,0.1010467848750267,0.08529923398541216,0.06256294442579424,-0.9259010589922788,-0.9907834101382489,-0.9596850489822077,-0.9480269783623768,-0.945371868037965,-0.9165623950926237,0.3251953125,0.46240234375,0.6123046875,0.6884765625,0.725341796875,0.756591796875,-1.0166015625,-0.10119937742240669,-0.5533616138187811,0.4966582232123783,0.6609698782311472,1.2099609375,0.0556640625,0.5302734375,0.145263671875,0.0966796875,0.033447265625,-0.3497314453125,0.27978515625,0.99755859375,0.8062379833368938,-0.5101168858912931,-0.5137180700094608,-0.6898403881954406,0.004547257911923582,0.00027466658528397473,-0.011230811487166967,0.8793908505508591,0.2433851130710776,0.99954222235786,-50.3125,-11.5,2.0625,-12.48046875,-3.6015625,-8.87109375,-38.625,-27.1875,0.0,0,0,1621,1060,1999,1,0.10736411633655812
1,489776,98,0.36896877956480606,0.03656117435224464,0.28415784173100983,0.31467635120700704,0.39500106814783165,0.4988250373851741,-0.028321176793725394,0.1435590685750908,0.11114841151158178,0.08529923398541216,0.06256294442579424,0.031769768364513076,-0.9290139469588305,-0.988952299569689,-0.9522995696890164,-0.945371868037965,-0.9165623950926237,-0.8661152989288003,0.32373046875,0.49560546875,0.654541015625,0.725341796875,0.756591796875,0.789794921875,-1.07373046875,-0.15076143681142612,-0.5918759727774896,0.5035859248634297,0.6110415967284157,1.139892578125,0.018798828125,0.4775390625,0.1201171875,0.1253662109375,0.0516357421875,-0.477294921875,0.2728271484375,0.9422607421875,0.7847834711752678,-0.4218878749961852,-0.5013885921811578,-0.7553941465498825,0.0053102206488235115,-6.103701895199438e-05,-0.0097964415417951,0.880092776268807,0.2654194769127476,0.99954222235786,-51.125,-11.75,1.625,-11.44921875,-4.87109375,-8.05078125,-38.4375,-27.75,0.0,0,0,1632,1059,1999,1,0.10129093295083468
1,489817,99,0.21735282448805202,0.05825983458967864,0.3017365031891842,0.39500106814783165,0.4988250373851741,0.5847956785790582,-0.026337473677785578,0.14151432844019898,0.1010467848750267,0.06256294442579424,0.031769768364513076,0.0031128879665517136,-0.9757377849665823,-0.9882198553422651,-0.9480269783623768,-0.9165623950926237,-0.8661152989288003,-0.8111819818720054,0.32177734375,0.538330078125,0.6884765625,0.756591796875,0.789794921875,0.816162109375,-0.862548828125,-0.18985564745017852,-0.6208075197607349,0.5071565904721214,0.5668507950071718,1.080810546875,0.03662109375,0.569580078125,0.11669921875,0.1151123046875,0.0552978515625,-0.531005859375,0.266845703125,0.8822021484375,0.7734916226691488,-0.34382152775658437,-0.4971465193639943,-0.7966551713614307,0.005676442762535478,-0.00024414807580797754,-0.00827051606799524,0.8782311471907712,0.24765770439771723,0.99954222235786,-51.625,-12.0,1.375,-10.37109375,-6.05078125,-7.30078125,-38.1875,-28.3125,0.0,0,0,1623,1060,1999,1,0.09418012024292734
1,489868,100,0.18082216864528336,0.1586657307657094,0.31467635120700704,0.4988250373851741,0.5847956785790582,0.6698812829981383,-0.006469924008911405,0.13303018280587176,0.08529923398541216,0.031769768364513076,0.0031128879665517136,-0.02783288064210944,-0.9834894863734855,-0.9783318582720419,-0.945371868037965,-0.8661152989288003,-0.8111819818720054,-0.7419354838709677,0.331787109375,0.574951171875,0.725341796875,0.789794921875,0.816162109375,0.84130859375,-0.8154296875,-0.23886837366863004,-0.6482131412701804,0.5059053315836055,0.5165257728812525,0.98193359375,-0.054443359375,0.373291015625,0.1474609375,0.11865234375,0.060546875,-0.595947265625,0.2568359375,0.77099609375,0.7626575518051698,-0.25266273995178073,-0.48442030091250343,-0.8375499740592669,0.006164738914151433,-0.0005188146610919523,-0.007202368236335337,0.8757591479232154,0.2710654011658071,0.99954222235786,-52.3125,-12.4375,1.0625,-8.51953125,-7.51171875,-5.828125,-37.9375,-28.875,0.0,0,0,1635,1062,1999,1,0.09063997314371167
1,489928,101,0.1325418866542558,0.25266273995178073,0.39500106814783165,0.5847956785790582,0.6698812829981383,0.7121799371318704,0.008606219672231208,0.12326425977355265,0.06256294442579424,0.0031128879665517136,-0.02783288064210944,-0.06115909298989838,-0.9911496322519608,-0.9596850489822077,-0.9165623950926237,-0.8111819818720054,-0.7419354838709677,-0.6993316446424757,0.3466796875,0.6123046875,0.756591796875,0.816162109375,0.84130859375,0.861328125,-0.64990234375,-0.2760399182103946,-0.6587725455488754,0.5076143681142613,0.4818262276070437,0.91064453125,-0.016357421875,0.141357421875,0.136474609375,0.0987548828125,0.035888671875,-0.4503173828125,0.25048828125,0.6685791015625,0.7600939970091861,-0.2031922360911893,-0.47041230506302073,-0.858729819635609,0.006073183385723441,-0.0007019257179479354,-0.006256294442579424,0.8671834467604602,0.19714957121494187,0.9994811853389081,-52.875,-13.0,0.8125,-6.8203125,-8.671875,-4.30078125,-37.625,-29.375,0.0,0,0,1598,1066,1999,1,0.08566545609912411
1,489970,102,0.17126987517929623,0.28415784173100983,0.4988250373851741,0.6698812829981383,0.7121799371318704,0.7186803796502579,0.049287392803735466,0.11114841151158178,0.031769768364513076,-0.02783288064210944,-0.06115909298989838,-0.08383434553056429,-0.9839777825251015,-0.9522995696890164,-0.8661152989288003,-0.7419354838709677,-0.6993316446424757,-0.6902676473281045,0.3671875,0.654541015625,0.789794921875,0.84130859375,0.861328125,0.880126953125,-0.6142578125,-0.2902005066072573,-0.6585283974730675,0.5124973296304208,0.4685201574755089,0.895751953125,0.013427734375,0.09521484375,0.080810546875,0.0948486328125,0.0556640625,-0.3004150390625,0.2496337890625,0.6297607421875,0.7591784417249061,-0.1966002380443739,-0.46565141758476514,-0.8628498184148686,0.005920590838343455,-0.0008850367748039186,-0.00598162785729545,0.8571733756523331,0.045991393780327766,0.9992980742820521,-53.1875,-13.375,0.6875,-6.1015625,-9.30078125,-3.44921875,-37.375,-29.9375,0.0,0,0,1522,1071,1999,1,0.0836817529831843
1,490020,103,0.12884914700766015,0.3017365031891842,0.5847956785790582,0.7121799371318704,0.7186803796502579,0.7414471877193518,0.09219641712698752,0.1010467848750267,0.0031128879665517136,-0.06115909298989838,-0.08383434553056429,-0.11487166966765343,-0.9873653370769372,-0.9480269783623768,-0.8111819818720054,-0.6993316446424757,-0.6902676473281045,-0.6611224707785271,0.396484375,0.6884765625,0.816162109375,0.861328125,0.880126953125,0.897216796875,-0.556884765625,-0.3121738334299753,-0.6624042481765191,0.5160679952391125,0.44434949797051915,0.908935546875,0.02783203125,0.382568359375,0.100830078125,0.0792236328125,0.029541015625,-0.1734619140625,0.251708984375,0.620849609375,0.7548142948698385,-0.17096469008453627,-0.4616229743339335,-0.8704489272743919,0.005737479781487472,-0.0010071108127079073,-0.0053102206488235115,0.814325388348033,-0.3956419568468276,0.9987487411114842,-53.4375,-13.875,0.625,-5.76171875,-9.94921875,-2.73046875,-37.0625,-30.4375,0.0,0,0,1302,1092,1999,1,0.07971434675130466
1,490073,104,0.09915463728751488,0.31467635120700704,0.6698812829981383,0.7186803796502579,0.7414471877193518,0.8018738364818262,0.11777092806787316,0.08529923398541216,-0.02783288064210944,-0.08383434553056429,-0.11487166966765343,-0.15692617572557757,-0.9880672627948851,-0.945371868037965,-0.7419354838709677,-0.6902676473281045,-0.6611224707785271,-0.576494644001587,0.424560546875,0.725341796875,0.84130859375,0.880126953125,0.897216796875,0.9111328125,-0.452392578125,-0.3567003387554552,-0.6787926877651296,0.5079805902279733,0.3923764763328959,0.919677734375,-0.040771484375,0.611083984375,0.12890625,0.0947265625,0.0360107421875,-0.316162109375,0.25341796875,0.592041015625,0.7543565172276986,-0.08304086428418836,-0.4553971984008301,-0.8864101077303385,0.006073183385723441,-0.0013122959074678793,-0.004577776421399579,0.7635120700704977,0.06347849971007416,0.9993591113010041,-53.8125,-14.5625,0.5625,-5.078125,-10.69921875,-1.62890625,-36.75,-30.9375,0.0,0,0,1531,1118,1999,1,0.07864619891964476
1,490121,105,0.031617175817133095,0.39500106814783165,0.7121799371318704,0.7414471877193518,0.8018738364818262,0.8763695181127353,0.13171788689840389,0.06256294442579424,-0.06115909298989838,-0.11487166966765343,-0.15692617572557757,-0.18140202032532732,-0.9907834101382489,-0.9165623950926237,-0.6993316446424757,-0.6611224707785271,-0.576494644001587,-0.44615009002960293,0.46240234375,0.756591796875,0.861328125,0.897216796875,0.9111328125,0.925537109375,-0.466552734375,-0.41663869136631365,-0.695516830957976,0.4824976348155156,0.3314310129093295,0.917724609375,-0.156494140625,0.577880859375,0.11376953125,0.1297607421875,0.062744140625,-0.5126953125,0.25341796875,0.52978515625,0.7731864375743889,0.04858546708578753,-0.4307687612537004,-0.9011505478072451,0.006317331461531419,-0.0014038514358958708,-0.003357036042359691,0.674001281777398,0.004791405987731559,0.9989623706778161,-54.0,-15.0625,0.5,-4.01953125,-11.21875,-0.5390625,-36.375,-31.4375,0.0,0,0,1502,1162,1999,1,0.07541123691518906
1,490173,106,0.03656117435224464,0.4988250373851741,0.7186803796502579,0.8018738364818262,0.8763695181127353,0.9277626880703147,0.1435590685750908,0.031769768364513076,-0.08383434553056429,-0.15692617572557757,-0.18140202032532732,-0.20581682790612507,-0.988952299569689,-0.8661152989288003,-0.6902676473281045,-0.576494644001587,-0.44615009002960293,-0.31131931516464734,0.49560546875,0.789794921875,0.880126953125,0.9111328125,0.925537109375,0.932861328125,-0.232177734375,-0.47230445265053256,-0.7094027527695548,0.4477370525223548,0.27060762352366713,0.911865234375,-0.0947265625,0.5615234375,0.071044921875,0.123291015625,0.03857421875,-0.5677490234375,0.252197265625,0.39990234375,0.825617236854152,0.18396557512131106,-0.40733054597613455,-0.8945585497604297,0.006683553575243385,-0.001586962492751854,-0.002410962248603778,-0.008880886257515184,-0.43427838984344,0.9964903714102603,-54.25,-15.875,0.625,-2.01953125,-11.6015625,1.37109375,-36.0625,-31.9375,0.0,0,0,1282,1504,1998,1,0.07544175542466507
1,490224,107,0.05825983458967864,0.5847956785790582,0.7414471877193518,0.8763695181127353,0.9277626880703147,0.9509567552720725,0.14151432844019898,0.0031128879665517136,-0.11487166966765343,-0.18140202032532732,-0.20581682790612507,-0.23514511551255837,-0.9882198553422651,-0.8111819818720054,-0.6611224707785271,-0.44615009002960293,-0.31131931516464734,-0.20093386638996552,0.538330078125,0.816162109375,0.897216796875,0.925537109375,0.932861328125,0.941650390625,-0.292236328125,-0.5099337748344371,-0.7162083803827021,0.4223761711478011,0.22049623096407972,0.923828125,0.031494140625,0.2998046875,0.0732421875,0.1029052734375,0.0406494140625,-0.5892333984375,0.252685546875,0.3055419921875,0.8710898159733879,0.2813806573686941,-0.39951780755027927,-0.8724936674092837,0.0065919980468153935,-0.0017090365306558428,-0.0014954069643238624,-0.047212134159367654,-0.7508468886379589,0.9968260750144963,-54.25,-16.5,0.75,-0.6015625,-11.69921875,2.640625,-35.6875,-32.4375,0.0,0,0,1124,1523,1998,1,0.07312234870448928
1,490275,108,0.1586657307657094,0.6698812829981383,0.8018738364818262,0.9277626880703147,0.9509567552720725,0.9500106814783166,0.13303018280587176,-0.02783288064210944,-0.15692617572557757,-0.20581682790612507,-0.23514511551255837,-0.2598345896786401,-0.9783318582720419,-0.7419354838709677,-0.576494644001587,-0.31131931516464734,-0.20093386638996552,-0.17316202276680806,0.574951171875,0.84130859375,0.9111328125,0.932861328125,0.941650390625,0.943115234375,-0.04541015625,-0.5317850276192511,-0.7119968260750145,0.4109012115848262,0.20355845820490126,0.957763671875,-0.19140625,-0.0244140625,0.02783203125,0.0997314453125,0.0235595703125,-0.44921875,0.2547607421875,0.2032470703125,0.9198278756065553,0.30817590868861966,-0.380535294656209,-0.8719138157292398,0.006683553575243385,-0.0019226660969878231,-0.0013428144169438765,-0.5615710928678244,-0.5669423505355998,0.9865108188116093,-54.25,-17.3125,1.0,0.94921875,-11.66015625,4.26171875,-35.3125,-32.875,0.0,0,0,1216,1780,1993,1,0.0740073854792932
1,490325,109,0.25266273995178073,0.7121799371318704,0.8763695181127353,0.9509567552720725,0.9500106814783166,0.9391766106143375,0.12326425977355265,-0.06115909298989838,-0.18140202032532732,-0.23514511551255837,-0.2598345896786401,-0.2478713339640492,-0.9596850489822077,-0.6993316446424757,-0.44615009002960293,-0.20093386638996552,-0.17316202276680806,-0.23767815179906612,0.6123046875,0.861328125,0.925537109375,0.941650390625,0.943115234375,0.949462890625,-0.2080078125,-0.5664235358745079,-0.6770836512344737,0.40620136112552263,0.2360606707968383,1.00146484375,-0.775146484375,-0.278564453125,-0.0400390625,0.079833984375,0.0223388671875,-0.3082275390625,0.258544921875,0.15625,0.9401226844080935,0.27353740043336283,-0.2772606585894345,-0.9210486159855953,0.006378368480483413,-0.00173955504013184,-0.0017090365306558428,0.4225287636951811,0.3302102725302896,0.9945371868037965,-54.1875,-17.9375,1.1875,1.78125,-11.8515625,5.08984375,-34.9375,-33.3125,0.0,0,0,1665,1288,1997,1,0.07208471938230537
1,490366,110,0.28415784173100983,0.7186803796502579,0.9277626880703147,0.9500106814783166,0.9391766106143375,0.9081698049867244,0.11114841151158178,-0.08383434553056429,-0.20581682790612507,-0.2598345896786401,-0.2478713339640492,-0.1893063142796106,-0.9522995696890164,-0.6902676473281045,-0.31131931516464734,-0.17316202276680806,-0.23767815179906612,-0.37333292641987365,0.654541015625,0.880126953125,0.932861328125,0.943115234375,0.949462890625,0.956298828125,-0.223388671875,-0.6161381878109073,-0.6037781914731285,0.402020325327311,0.30692464980010375,1.047119140625,-1.00537109375,-0.511962890625,-0.002685546875,0.0869140625,-0.0018310546875,-0.1153564453125,0.2626953125,0.1397705078125,0.9476912747581409,0.1826837977233192,-0.07480086672566912,-0.9803155613879818,0.006164738914151433,-0.0013428144169438765,-0.0026551103244117557,0.2151249732963042,0.3195593127231666,0.9699697866756187,-54.0625,-18.5,1.375,2.23828125,-12.171875,5.671875,-34.5,-33.75,0.0,0,0,1659,1392,1984,1,0.07220679342020936
1,490427,111,0.3017365031891842,0.7414471877193518,0.9509567552720725,0.9391766106143375,0.9081698049867244,0.7818231757560961,0.1010467848750267,-0.11487166966765343,-0.23514511551255837,-0.2478713339640492,-0.1893063142796106,-0.04324472792748802,-0.9480269783623768,-0.6611224707785271,-0.20093386638996552,-0.23767815179906612,-0.37333292641987365,-0.6219977416302988,0.6884765625,0.897216796875,0.941650390625,0.949462890625,0.956298828125,0.953369140625,0.102294921875,-0.6658528397473067,-0.4490188299203467,0.41444135868404186,0.4280526139103366,1.135986328125,-0.6005859375,-0.48779296875,0.15234375,0.0994873046875,-0.05078125,0.3956298828125,0.27197265625,0.208740234375,0.9299905392620624,-0.0466933194982757,0.2642292550431837,-0.9633167516098514,0.00521866512039552,-0.0003051850947599719,-0.004272591326639607,0.6866054261909849,-0.5406964323862422,0.9897152623065889,-53.9375,-19.4375,1.6875,1.921875,-13.328125,6.05859375,-34.0625,-34.1875,0.0,0,0,1229,1156,1994,1,0.07159642323068942
1,490467,112,0.31467635120700704,0.8018738364818262,0.9500106814783166,0.9081698049867244,0.7818231757560961,0.7109897152623066,0.08529923398541216,-0.15692617572557757,-0.2598345896786401,-0.1893063142796106,-0.04324472792748802,-0.003967406231879635,-0.945371868037965,-0.576494644001587,-0.17316202276680806,-0.37333292641987365,-0.6219977416302988,-0.7031769768364513,0.725341796875,0.9111328125,0.943115234375,0.956298828125,0.953369140625,0.96044921875,-0.2333984375,-0.6802880947294534,-0.38306833094271675,0.4293038727988525,0.4540543839838862,1.197021484375,-0.07958984375,-0.09375,0.294921875,0.0833740234375,-0.0460205078125,0.498291015625,0.2794189453125,0.34130859375,0.8875087740714743,-0.12533951841792046,0.37342448194830163,-0.9191564683980834,0.004730368968779565,-3.051850947599719e-05,-0.004821924497207556,0.7643055513168737,-0.6146427808465834,0.9962767418439283,-53.875,-20.0625,1.8125,0.578125,-14.26171875,6.19921875,-33.625,-34.625,0.0,0,0,1192,1117,1998,1,0.07165746024964141
1,490518,113,0.39500106814783165,0.8763695181127353,0.9391766106143375,0.7818231757560961,0.7109897152623066,0.7111423078096866,0.06256294442579424,-0.18140202032532732,-0.2478713339640492,-0.04324472792748802,-0.003967406231879635,-0.08316293832209234,-0.9165623950926237,-0.44615009002960293,-0.23767815179906612,-0.6219977416302988,-0.7031769768364513,-0.6981414227729118,0.756591796875,0.925537109375,0.949462890625,0.953369140625,0.96044921875,0.960205078125,0.0087890625,-0.7103793450727867,-0.36988433484908595,0.4391308328501236,0.40705587939085053,1.258056640625,-0.090087890625,0.34765625,0.39208984375,0.066162109375,0.000244140625,0.1954345703125,0.286865234375,0.4549560546875,0.848139896847438,-0.06601153599658192,0.38007751701406906,-0.9226050599688711,0.004638813440351573,-0.0005798516800439467,-0.004699850459303568,0.804467909787286,-0.15094454786828213,0.9989013336588641,-53.8125,-21.0625,2.0625,-0.55078125,-14.80859375,6.921875,-33.1875,-35.0,0.0,0,0,1424,1097,1999,1,0.0706808679464095
1,490569,114,0.4988250373851741,0.9277626880703147,0.9081698049867244,0.7109897152623066,0.7111423078096866,0.7756279183324687,0.031769768364513076,-0.20581682790612507,-0.1893063142796106,-0.003967406231879635,-0.08316293832209234,-0.11682485427411725,-0.8661152989288003,-0.31131931516464734,-0.37333292641987365,-0.7031769768364513,-0.6981414227729118,-0.620288705099643,0.789794921875,0.932861328125,0.956298828125,0.96044921875,0.960205078125,0.969482421875,-0.3046875,-0.771172215948973,-0.3470259712515641,0.3972899563585314,0.3563951536606952,1.27734375,-0.3798828125,0.542724609375,0.261474609375,0.0648193359375,0.0537109375,-0.2012939453125,0.2886962890625,0.431640625,0.8575701162755212,0.09009063997314372,0.44306772057252725,-0.8919339579454939,0.005066072573015534,-0.000793481246375927,-0.004150517288735618,0.8358409375286111,0.22305978576006347,0.9989013336588641,-53.8125,-21.75,2.1875,-0.0703125,-14.8203125,7.48828125,-32.75,-35.375,0.0,0,0,1611,1082,1999,1,0.07043671987060152
1,490630,115,0.5847956785790582,0.9509567552720725,0.7818231757560961,0.7111423078096866,0.7756279183324687,0.8768578142643513,0.0031128879665517136,-0.23514511551255837,-0.04324472792748802,-0.08316293832209234,-0.11682485427411725,-0.12530899990844446,-0.8111819818720054,-0.20093386638996552,-0.6219977416302988,-0.6981414227729118,-0.620288705099643,-0.4641254921109653,0.816162109375,0.941650390625,0.953369140625,0.960205078125,0.969482421875,0.968017578125,0.050537109375,-0.8426160466322825,-0.3305459761345256,0.30075991088595233,0.30045472579119237,1.286865234375,-0.07568359375,0.783447265625,0.158447265625,0.099853515625,0.07568359375,-0.591064453125,0.287841796875,0.2882080078125,0.9080477309488204,0.3130283516953032,0.5175023651844843,-0.7963805047761467,0.005645924253059481,-0.0008239997558519242,-0.0030823694570757164,0.56587420270394,0.21149327066866055,0.9987182226020082,-53.625,-22.75,2.5625,2.109375,-14.58984375,7.91015625,-32.3125,-35.75,0.0,0,0,1605,1217,1999,1,0.0696127201147496
1,490670,116,0.6698812829981383,0.9500106814783166,0.7109897152623066,0.7756279183324687,0.8768578142643513,0.93435468611713,-0.02783288064210944,-0.2598345896786401,-0.003967406231879635,-0.11682485427411725,-0.12530899990844446,-0.15826899014252144,-0.7419354838709677,-0.17316202276680806,-0.7031769768364513,-0.620288705099643,-0.4641254921109653,-0.3193151646473586,0.84130859375,0.943115234375,0.96044921875,0.969482421875,0.968017578125,0.97412109375,-0.20068359375,-0.8710287789544359,-0.3505966368602558,0.23218482009338665,0.25391399884029664,1.256103515625,0.112060546875,0.770263671875,0.13427734375,0.1363525390625,0.10302734375,-0.7978515625,0.2813720703125,0.1492919921875,0.945524460585345,0.45786919766838585,0.5060579241309855,-0.7309183019501327,0.006042664876247444,-0.0010376293221839045,-0.0021668141727958007,0.7758720664082767,0.09805597094637898,0.9990539262062441,-53.4375,-23.3125,2.8125,3.94921875,-13.921875,7.5703125,-31.8125,-36.125,0.0,0,0,1549,1112,1999,1,0.06979583117160558
1,490721,117,0.7121799371318704,0.9391766106143375,0.7111423078096866,0.8768578142643513,0.93435468611713,0.9635608996856594,-0.06115909298989838,-0.2478713339640492,-0.08316293832209234,-0.12530899990844446,-0.15826899014252144,-0.2074648274178289,-0.6993316446424757,-0.23767815179906612,-0.6981414227729118,-0.4641254921109653,-0.3193151646473586,-0.16879787591174047,0.861328125,0.949462890625,0.960205078125,0.968017578125,0.97412109375,0.965087890625,0.293701171875,-0.8830530716879788,-0.38944669942320015,0.16885891293069247,0.2001098666341136,1.1806640625,0.25732421875,0.24755859375,0.13818359375,0.14013671875,0.1031494140625,-0.852294921875,0.2677001953125,-0.08056640625,0.9831537827692496,0.5834528641621143,0.45799127170628984,-0.6707052827539903,0.006286812952055422,-0.0014038514358958708,-0.0011902218695638905,-0.0696737571337016,-0.3297219763786737,0.9978331858272041,-52.9375,-24.1875,3.1875,6.75,-12.26171875,6.30078125,-31.3125,-36.5,0.0,0,0,1335,1534,1998,1,0.06997894222846156
1,490772,118,0.7186803796502579,0.9081698049867244,0.7756279183324687,0.93435468611713,0.9635608996856594,0.9642017883846553,-0.08383434553056429,-0.1893063142796106,-0.11682485427411725,-0.15826899014252144,-0.2074648274178289,-0.24521622363963744,-0.6902676473281045,-0.37333292641987365,-0.620288705099643,-0.3193151646473586,-0.16879787591174047,-0.10098574785607471,0.880126953125,0.956298828125,0.969482421875,0.97412109375,0.965087890625,0.968017578125,-0.095703125,-0.8760032959990234,-0.4250923184911649,0.152317880794702,0.1694082461012604,1.132080078125,0.235595703125,0.020263671875,0.031005859375,0.0980224609375,0.0953369140625,-0.611328125,0.25927734375,-0.1810302734375,0.9912411877803888,0.630512405774102,0.39820551164281137,-0.6662495803704948,0.006347849971007416,-0.0016785180211798456,-0.0007629627368999298,0.5377971739860226,-0.31052583391827143,0.9983520004882962,-52.5625,-24.625,3.4375,7.83984375,-11.1796875,5.48828125,-30.8125,-36.8125,0.0,0,0,1344,1231,1999,1,0.07058931241798151
